File: database/experiments/MU/xrd/930(921)_ppo_chloranil_liftfsi_for_xrd_5/xrd.csv
x,y
10,27044.7
10.06,28587.7
10.12,28275.6
10.18,28570.3
10.24,28986.4
10.3,29194.4
10.36,28674.4
10.42,28327.6
10.48,28397
10.54,29766.5
10.6,27842.2
10.66,29385.1
10.72,29090.4
10.78,29922.6
10.84,29835.9
10.9,29697.2
10.96,29298.5
11.02,28934.4
11.08,27564.8
11.14,28917.1
11.2,29090.4
11.26,29073.1
11.32,30304
11.38,29957.2
11.44,29627.9
11.5,28743.7
11.56,29194.4
11.62,29333.1
11.68,29038.4
11.74,31378.8
11.8,29679.9
11.86,31066.8
11.92,29974.6
11.98,30876.1
12.04,29714.5
12.1,30321.3
12.16,30806.7
12.22,30477.3
12.28,30789.4
12.34,31066.8
12.4,31066.8
12.46,30789.4
12.52,31725.6
12.58,31153.5
12.64,31690.9
12.7,32523
12.76,31136.1
12.82,32176.3
12.88,31846.9
12.94,31170.8
13,31413.5
13.06,31829.6
13.12,32263
13.18,31604.2
13.24,30720
13.3,30928.1
13.36,32176.3
13.42,32557.7
13.48,31136.1
13.54,31898.9
13.6,31621.5
13.66,32384.3
13.72,32037.6
13.78,33424.5
13.84,31118.8
13.9,32835.1
13.96,32592.4
14.02,32349.7
14.08,34014
14.14,32505.7
14.2,33441.9
14.26,32141.6
14.32,32211
14.38,32384.3
14.44,32107
14.5,32627
14.56,32245.6
14.62,32176.3
14.68,32627
14.74,32575
14.8,33147.1
14.86,33008.4
14.92,31621.5
14.98,32141.6
15.04,32609.7
15.1,32211
15.16,32332.3
15.22,32453.7
15.28,32037.6
15.34,32696.4
15.4,33961.9
15.46,32921.8
15.52,31690.9
15.58,31101.4
15.64,31708.2
15.7,31950.9
15.76,31205.5
15.82,31118.8
15.88,32332.3
15.94,31032.1
16,30928.1
16.06,31430.8
16.12,31257.5
16.18,30824.1
16.24,30390.7
16.3,30408
16.36,30754.7
16.42,30512
16.48,31014.8
16.54,30598.7
16.6,30754.7
16.66,30095.9
16.72,29558.5
16.78,31344.2
16.84,30893.4
16.9,31049.4
16.96,30078.6
17.02,31482.8
17.08,31881.6
17.14,32193.6
17.2,32523
17.26,32540.4
17.32,29697.2
17.38,29558.5
17.44,28188.9
17.5,29506.5
17.56,28449
17.62,28899.7
17.68,28483.7
17.74,29558.5
17.8,28188.9
17.86,28743.7
17.92,28830.4
17.98,28553
18.04,28258.3
18.1,26628.7
18.16,28882.4
18.22,28362.3
18.28,29419.8
18.34,29575.8
18.4,27980.9
18.46,29177.1
18.52,27356.8
18.58,27547.5
18.64,27582.2
18.7,27010.1
18.76,27183.4
18.82,27564.8
18.88,26992.7
18.94,28449
19,29385.1
19.06,30910.7
19.12,32401.7
19.18,32002.9
19.24,29489.2
19.3,28969.1
19.36,27148.8
19.42,27200.8
19.48,26386
19.54,27703.5
19.6,25709.8
19.66,27200.8
19.72,26368.6
19.78,26004.6
19.84,26073.9
19.9,26906
19.96,26333.9
20.02,26316.6
20.08,25761.8
20.14,25363.1
20.2,26403.3
20.26,24912.4
20.32,26177.9
20.38,25293.8
20.44,24895
20.5,26039.2
20.56,24999
20.62,24704.3
20.68,25016.4
20.74,25744.5
20.8,24253.6
20.86,25345.8
20.92,25120.4
20.98,25761.8
21.04,24426.9
21.1,25224.4
21.16,24808.3
21.22,24895
21.28,24860.4
21.34,25571.1
21.4,24947
21.46,25467.1
21.52,24947
21.58,25848.5
21.64,24132.2
21.7,25155.1
21.76,23785.5
21.82,24080.2
21.88,25328.4
21.94,24270.9
22,24426.9
22.06,25640.5
22.12,24218.9
22.18,24357.6
22.24,24028.2
22.3,23716.2
22.36,24704.3
22.42,23022.7
22.48,25259.1
22.54,23646.8
22.6,25137.7
22.66,24392.3
22.72,23750.8
22.78,24080.2
22.84,24895
22.9,25519.1
22.96,24062.9
23.02,24201.6
23.08,25103.1
23.14,25831.2
23.2,25796.5
23.26,25900.5
23.32,24531
23.38,23958.9
23.44,23820.2
23.5,23924.2
23.56,23889.5
23.62,23196.1
23.68,23282.7
23.74,23612.1
23.8,23109.4
23.86,23802.8
23.92,22641.3
23.98,23248.1
24.04,22936
24.1,22970.7
24.16,22086.5
24.22,22797.3
24.28,22762.7
24.34,22762.7
24.4,23352.1
24.46,23352.1
24.52,23664.1
24.58,25553.8
24.64,24825.7
24.7,25328.4
24.76,24617.6
24.82,23958.9
24.88,23386.8
24.94,24981.7
25,24132.2
25.06,23040
25.12,21289.1
25.18,21202.4
25.24,20734.3
25.3,20751.6
25.36,19746.1
25.42,21219.7
25.48,20404.9
25.54,20907.7
25.6,20543.6
25.66,20266.2
25.72,20907.7
25.78,19607.4
25.84,20162.2
25.9,20092.9
25.96,19711.5
26.02,20023.5
26.08,20491.6
26.14,18515.2
26.2,19382.1
26.26,18688.6
26.32,19659.4
26.38,18185.9
26.44,20040.8
26.5,19694.1
26.56,20196.9
26.62,19416.7
26.68,18549.9
26.74,18653.9
26.8,18619.3
26.86,18220.5
26.92,18099.2
26.98,18515.2
27.04,17925.8
27.1,19070
27.16,16972.3
27.22,18445.9
27.28,18567.3
27.34,18168.5
27.4,18151.2
27.46,17700.4
27.52,17457.7
27.58,17249.7
27.64,17648.4
27.7,16746.9
27.76,16729.6
27.82,16972.3
27.88,17908.5
27.94,16729.6
28,17579.1
28.06,16729.6
28.12,17267
28.18,16746.9
28.24,17440.4
28.3,16903
28.36,15793.4
28.42,16296.2
28.48,15949.5
28.54,16833.6
28.6,15793.4
28.66,15862.8
28.72,16694.9
28.78,17527.1
28.84,17509.7
28.9,17457.7
28.96,17371
29.02,16729.6
29.08,17041.7
29.14,16244.2
29.2,16036.1
29.26,16625.6
29.32,15810.8
29.38,15637.4
29.44,15966.8
29.5,15134.7
29.56,16053.5
29.62,15464
29.68,15273.3
29.74,16070.8
29.8,16365.5
29.86,15065.3
29.92,15550.7
29.98,15256
30.04,15498.7
30.1,15169.3
30.16,15308
30.22,15221.3
30.28,14389.2
30.34,14909.3
30.4,14770.6
30.46,14787.9
30.52,15273.3
30.58,15065.3
30.64,14493.2
30.7,14805.3
30.76,14354.5
30.82,14926.6
30.88,13817.1
30.94,13210.3
31,14614.6
31.06,14701.2
31.12,13453
31.18,13903.8
31.24,14146.5
31.3,14787.9
31.36,13539.7
31.42,14198.5
31.48,13643.7
31.54,13730.4
31.6,14163.8
31.66,13661.1
31.72,14996
31.78,13903.8
31.84,13851.8
31.9,14389.2
31.96,14527.9
32.02,14077.1
32.08,14406.5
32.14,14215.8
32.2,13817.1
32.26,13591.7
32.32,13626.4
32.38,13990.5
32.44,14441.2
32.5,13505
32.56,13349
32.62,14163.8
32.68,13349
32.74,13782.4
32.8,13661.1
32.86,13903.8
32.92,13245
32.98,14181.2
33.04,13574.4
33.1,14250.5
33.16,14285.2
33.22,14770.6
33.28,15602.7
33.34,16053.5
33.4,15377.4
33.46,14909.3
33.52,13938.4
33.58,14094.5
33.64,13418.4
33.7,12967.6
33.76,13626.4
33.82,13349
33.88,12672.9
33.94,12915.6
34,13314.3
34.06,13401
34.12,13106.3
34.18,12984.9
34.24,12794.2
34.3,13574.4
34.36,13123.6
34.42,13279.7
34.48,11806.1
34.54,12395.5
34.6,12984.9
34.66,12066.1
34.72,13089
34.78,13106.3
34.84,12568.9
34.9,12672.9
34.96,12863.6
35.02,12239.5
35.08,12222.1
35.14,12811.6
35.2,12014.1
35.26,13106.3
35.32,11788.7
35.38,12239.5
35.44,11667.4
35.5,11563.4
35.56,12638.2
35.62,11511.3
35.68,12118.1
35.74,12274.2
35.8,12239.5
35.86,11632.7
35.92,11598
35.98,11199.3
36.04,11719.4
36.1,11736.7
36.16,12464.9
36.22,11858.1
36.28,13054.3
36.34,13089
36.4,11944.8
36.46,12031.4
36.52,12586.2
36.58,11234
36.64,11355.3
36.7,11494
36.76,11979.4
36.82,11788.7
36.88,10921.9
36.94,11216.6
37,12066.1
37.06,12516.9
37.12,12811.6
37.18,11875.4
37.24,12204.8
37.3,11268.6
37.36,11320.7
37.42,11372.7
37.48,11268.6
37.54,11355.3
37.6,11407.3
37.66,11338
37.72,11858.1
37.78,10731.2
37.84,11754.1
37.9,11234
37.96,11788.7
38.02,12326.2
38.08,13227.7
38.14,13106.3
38.2,12447.5
38.26,12603.5
38.32,11546
38.38,11667.4
38.44,11892.8
38.5,11199.3
38.56,10973.9
38.62,11511.3
38.68,10852.6
38.74,11251.3
38.8,10783.2
38.86,11407.3
38.92,11095.3
38.98,11164.6
39.04,11407.3
39.1,11286
39.16,10800.6
39.22,10956.6
39.28,10124.4
39.34,11025.9
39.4,10783.2
39.46,10956.6
39.52,10800.6
39.58,10592.5
39.64,10835.2
39.7,10211.1
39.76,10332.5
39.82,10869.9
39.88,10020.4
39.94,10453.8
40,10193.8
40.06,10627.2
40.12,10211.1
40.18,10575.2
40.24,10609.9
40.3,10245.8
40.36,10852.6
40.42,10367.1
40.48,10055.1
40.54,10904.6
40.6,10020.4
40.66,10627.2
40.72,10315.1
40.78,10471.2
40.84,11095.3
40.9,10575.2
40.96,10835.2
41.02,11043.3
41.08,9829.72
41.14,10055.1
41.2,10991.3
41.26,9188.28
41.32,10731.2
41.38,9916.4
41.44,10193.8
41.5,10211.1
41.56,10297.8
41.62,10349.8
41.68,10124.4
41.74,10384.5
41.8,10523.2
41.86,10193.8
41.92,10661.9
41.98,10419.2
42.04,10540.5
42.1,10540.5
42.16,11043.3
42.22,10835.2
42.28,10505.8
42.34,10748.5
42.4,10939.3
42.46,10575.2
42.52,10297.8
42.58,10089.8
42.64,10488.5
42.7,10124.4
42.76,10263.1
42.82,10817.9
42.88,9847.06
42.94,10471.2
43,9812.39
43.06,10592.5
43.12,9933.74
43.18,10332.5
43.24,9517.67
43.3,10193.8
43.36,9222.95
43.42,9604.35
43.48,10159.1
43.54,10176.4
43.6,9517.67
43.66,10003.1
43.72,9587.01
43.78,10211.1
43.84,10245.8
43.9,9951.08
43.96,10037.8
44.02,9535
44.08,10540.5
44.14,10332.5
44.2,9673.69
44.26,10141.8
44.32,9378.98
44.38,10523.2
44.44,9517.67
44.5,9985.75
44.56,9743.04
44.62,10124.4
44.68,9587.01
44.74,9691.03
44.8,9188.28
44.86,8789.54
44.92,9656.36
44.98,9795.05
45.04,9569.68
45.1,9933.74
45.16,9656.36
45.22,9500.33
45.28,9326.97
45.34,9795.05
45.4,8910.89
45.46,9569.68
45.52,9413.65
45.58,9691.03
45.64,8737.53
45.7,8997.58
45.76,8286.79
45.82,9344.3
45.88,8512.16
45.94,8772.2
46,8668.19
46.06,8494.82
46.12,9326.97
46.18,9743.04
46.24,8598.84
46.3,8165.43
46.36,9517.67
46.42,9344.3
46.48,9118.93
46.54,8980.24
46.6,8893.56
46.66,9222.95
46.72,8945.57
46.78,8494.82
46.84,9205.61
46.9,8841.55
46.96,9032.25
47.02,8789.54
47.08,8685.52
47.14,8858.89
47.2,9309.63
47.26,8650.85
47.32,8512.16
47.38,8789.54
47.44,8754.87
47.5,9222.95
47.56,9621.69
47.62,8997.58
47.68,8442.81
47.74,9084.26
47.8,9344.3
47.86,9240.29
47.92,9413.65
47.98,9448.32
48.04,8442.81
48.1,7957.39
48.16,8980.24
48.22,8876.22
48.28,9170.94
48.34,8425.48
48.4,8269.45
48.46,8633.51
48.52,8477.49
48.58,8425.48
48.64,8026.74
48.7,8096.08
48.76,8356.13
48.82,8304.12
48.88,8442.81
48.94,7766.69
49,9118.93
49.06,7662.68
49.12,7905.38
49.18,8252.11
49.24,8616.18
49.3,10020.4
49.36,9118.93
49.42,10141.8
49.48,9743.04
49.54,11130
49.6,9517.67
49.66,10141.8
49.72,8512.16
49.78,8460.15
49.84,8893.56
49.9,8858.89
49.96,7888.05
50.02,9032.25
50.08,8408.14
50.14,8702.86
50.2,8252.11
50.26,8737.53
50.32,8044.08
50.38,7194.59
50.44,8061.41
50.5,7818.7
50.56,7263.94
50.62,7281.28
50.68,7506.65
50.74,7870.71
50.8,7645.34
50.86,7575.99
50.92,6969.22
50.98,8026.74
51.04,7263.94
51.1,7922.72
51.16,6969.22
51.22,7419.97
51.28,8044.08
51.34,6986.56
51.4,7628
51.46,7333.28
51.52,7697.35
51.58,8598.84
51.64,6951.88
51.7,7107.91
51.76,7402.63
51.82,7628
51.88,7038.57
51.94,6761.18
52,6761.18
52.06,7177.26
52.12,7159.92
52.18,7593.33
52.24,7437.3
52.3,6570.48
52.36,6414.46
52.42,6414.46
52.48,6865.2
52.54,6102.4
52.6,6345.11
52.66,6657.17
52.72,6379.78
52.78,6761.18
52.84,6726.51
52.9,6830.53
52.96,6570.48
53.02,6882.54
53.08,6275.77
53.14,6466.47
53.2,6310.44
53.26,6501.14
53.32,7298.61
53.38,6587.82
53.44,6847.87
53.5,6258.43
53.56,5703.67
53.62,6067.73
53.68,5807.68
53.74,5721
53.8,6674.5
53.86,6691.84
53.92,5825.02
53.98,6466.47
54.04,6102.4
54.1,6258.43
54.16,5651.66
54.22,6050.39
54.28,6067.73
54.34,6067.73
54.4,6154.41
54.46,5738.34
54.52,5894.37
54.58,6189.08
54.64,5651.66
54.7,5946.38
54.76,5981.05
54.82,5773.01
54.88,5703.67
54.94,5512.97
55,5738.34
55.06,5998.38
55.12,5408.95
55.18,5686.33
55.24,5634.32
55.3,5929.04
55.36,5287.59
55.42,5668.99
55.48,5616.98
55.54,5512.97
55.6,5998.38
55.66,5686.33
55.72,5547.64
55.78,5651.66
55.84,5010.21
55.9,5842.36
55.96,5235.58
56.02,5703.67
56.08,5044.88
56.14,5096.89
56.2,5721
56.26,5322.27
56.32,5443.62
56.38,5842.36
56.44,4663.48
56.5,4715.49
56.56,5270.26
56.62,5773.01
56.68,5686.33
56.74,4906.19
56.8,5426.28
56.86,4975.54
56.92,4958.2
56.98,5322.27
57.04,5668.99
57.1,5114.23
57.16,4715.49
57.22,5131.57
57.28,4698.16
57.34,4854.18
57.4,5148.9
57.46,4819.51
57.52,4438.11
57.58,4958.2
57.64,4698.16
57.7,5044.88
57.76,4524.79
57.82,4646.15
57.88,5096.89
57.94,5339.6
58,4958.2
58.06,4906.19
58.12,4750.17
58.18,4611.47
58.24,4715.49
58.3,4940.87
58.36,5010.21
58.42,5062.22
58.48,4386.1
58.54,4611.47
58.6,5131.57
58.66,5183.57
58.72,4836.85
58.78,4836.85
58.84,5010.21
58.9,5096.89
58.96,5114.23
59.02,4750.17
59.08,4472.78
59.14,4975.54
59.2,4628.81
59.26,4871.52
59.32,4403.44
59.38,4368.77
59.44,4698.16
59.5,4854.18
59.56,4680.82
59.62,4767.5
59.68,4472.78
59.74,4420.77
59.8,4871.52
59.86,4975.54
59.92,4576.8
59.98,4438.11
60.04,4871.52
60.1,4542.13
60.16,4386.1
60.22,4611.47
60.28,4472.78
60.34,4472.78
60.4,4282.08
60.46,4351.43
60.52,4108.72
60.58,4767.5
60.64,4316.76
60.7,4160.73
60.76,4351.43
60.82,4212.74
60.88,4074.05
60.94,3935.36
61,4022.04
61.06,4091.38
61.12,4386.1
61.18,4698.16
61.24,4542.13
61.3,4888.86
61.36,4420.77
61.42,4403.44
61.48,4854.18
61.54,4334.09
61.6,4403.44
61.66,4195.4
61.72,4264.75
61.78,3848.67
61.84,3866.01
61.9,3952.69
61.96,4646.15
62.02,4507.46
62.08,4698.16
62.14,4247.41
62.2,4767.5
62.26,4230.07
62.32,4212.74
62.38,4126.06
62.44,4334.09
62.5,3831.34
62.56,4524.79
62.62,4056.71
62.68,4472.78
62.74,4403.44
62.8,4299.42
62.86,3918.02
62.92,4126.06
62.98,4299.42
63.04,4039.37
63.1,3987.37
63.16,4282.08
63.22,3935.36
63.28,4143.39
63.34,3779.33
63.4,3900.68
63.46,4195.4
63.52,4420.77
63.58,4126.06
63.64,3814
63.7,4108.72
63.76,4160.73
63.82,4091.38
63.88,4091.38
63.94,4160.73
64,3814
64.06,4282.08
64.12,4091.38
64.18,4368.77
64.24,4507.46
64.3,4264.75
64.36,4126.06
64.42,4022.04
64.48,4004.7
64.54,4299.42
64.6,4160.73
64.66,4230.07
64.72,3952.69
64.78,3640.64
64.84,3553.96
64.9,4143.39
64.96,4091.38
65.02,4455.45
65.08,3970.03
65.14,3952.69
65.2,3744.66
65.26,3484.61
65.32,3761.99
65.38,4126.06
65.44,4091.38
65.5,3779.33
65.56,3814
65.62,4420.77
65.68,3900.68
65.74,3831.34
65.8,3918.02
65.86,4438.11
65.92,3831.34
65.98,4056.71
66.04,3571.29
66.1,4316.76
66.16,4039.37
66.22,3987.37
66.28,4178.07
66.34,3900.68
66.4,3935.36
66.46,3640.64
66.52,4074.05
66.58,4108.72
66.64,3640.64
66.7,3709.98
66.76,3501.95
66.82,4212.74
66.88,4368.77
66.94,3727.32
67,3605.97
67.06,3553.96
67.12,3727.32
67.18,3536.62
67.24,4004.7
67.3,3761.99
67.36,3848.67
67.42,3311.25
67.48,3623.3
67.54,3675.31
67.6,3918.02
67.66,3536.62
67.72,3970.03
67.78,3900.68
67.84,3952.69
67.9,3796.67
67.96,3831.34
68.02,3779.33
68.08,3883.35
68.14,3935.36
68.2,3363.26
68.26,3761.99
68.32,3709.98
68.38,3553.96
68.44,3345.92
68.5,3814
68.56,3553.96
68.62,3484.61
68.68,3727.32
68.74,3918.02
68.8,3727.32
68.86,3779.33
68.92,4056.71
68.98,3675.31
69.04,3640.64
69.1,3692.65
69.16,3571.29
69.22,3259.24
69.28,3657.97
69.34,3796.67
69.4,3259.24
69.46,3779.33
69.52,3640.64
69.58,3553.96
69.64,3709.98
69.7,3657.97
69.76,3918.02
69.82,3605.97
69.88,3276.57
69.94,3831.34
70,3501.95
70.06,3744.66
70.12,3640.64
70.18,3415.26
70.24,3831.34
70.3,3033.86
70.36,3536.62
70.42,3900.68
70.48,3952.69
70.54,3727.32
70.6,3605.97
70.66,3831.34
70.72,3033.86
70.78,3484.61
70.84,3415.26
70.9,3259.24
70.96,3276.57
71.02,3241.9
71.08,3623.3
71.14,3744.66
71.2,3692.65
71.26,3709.98
71.32,3848.67
71.38,3970.03
71.44,3779.33
71.5,3657.97
71.56,3380.59
71.62,3519.28
71.68,3397.93
71.74,3675.31
71.8,3553.96
71.86,3779.33
71.92,3779.33
71.98,3415.26
72.04,3692.65
72.1,3380.59
72.16,3553.96
72.22,3432.6
72.28,3727.32
72.34,3241.9
72.4,3189.89
72.46,3779.33
72.52,3605.97
72.58,3467.27
72.64,3675.31
72.7,3605.97
72.76,3744.66
72.82,3675.31
72.88,3380.59
72.94,3103.21
73,3311.25
73.06,4074.05
73.12,3970.03
73.18,3207.23
73.24,3761.99
73.3,3380.59
73.36,3449.94
73.42,3224.56
73.48,3640.64
73.54,3588.63
73.6,3536.62
73.66,3432.6
73.72,3553.96
73.78,3848.67
73.84,3709.98
73.9,3640.64
73.96,3657.97
74.02,3796.67
74.08,3415.26
74.14,3605.97
74.2,3918.02
74.26,4108.72
74.32,3709.98
74.38,4091.38
74.44,3657.97
74.5,3675.31
74.56,3709.98
74.62,4039.37
74.68,3657.97
74.74,3328.58
74.8,3883.35
74.86,4143.39
74.92,3952.69
74.98,3623.3
75.04,3935.36
75.1,4091.38
75.16,4264.75
75.22,4074.05
75.28,4108.72
75.34,3779.33
75.4,4126.06
75.46,3553.96
75.52,4438.11
75.58,4039.37
75.64,4108.72
75.7,4212.74
75.76,4420.77
75.82,4992.87
75.88,4819.51
75.94,6535.81
76,6917.21
76.06,5218.25
76.12,6223.76
76.18,6466.47
76.24,6535.81
76.3,6761.18
76.36,7593.33
76.42,6761.18
76.48,7645.34
76.54,8200.1
76.6,6033.06
76.66,5703.67
76.72,5564.98
76.78,4836.85
76.84,4195.4
76.9,4906.19
76.96,3918.02
77.02,4316.76
77.08,3952.69
77.14,3970.03
77.2,4542.13
77.26,4195.4
77.32,4472.78
77.38,4680.82
77.44,4576.8
77.5,4403.44
77.56,4663.48
77.62,3831.34
77.68,4022.04
77.74,4230.07
77.8,3848.67
77.86,4230.07
77.92,4039.37
77.98,3970.03
78.04,4594.14
78.1,3970.03
78.16,3918.02
78.22,4351.43
78.28,4091.38
78.34,4178.07
78.4,4108.72
78.46,4004.7
78.52,4143.39
78.58,4351.43
78.64,4351.43
78.7,3848.67
78.76,3900.68
78.82,4264.75
78.88,4022.04
78.94,4143.39
79,3623.3
79.06,3900.68
79.12,3970.03
79.18,4316.76
79.24,3814
79.3,4004.7
79.36,4212.74
79.42,3675.31
79.48,3831.34
79.54,3987.37
79.6,4316.76
79.66,4368.77
79.72,4195.4
79.78,4004.7
79.84,4212.74
79.9,3796.67
79.96,3761.99
80.02,4542.13
80.08,4212.74
80.14,4368.77
80.2,4247.41
80.26,4316.76
80.32,3866.01
80.38,4056.71
80.44,3588.63
80.5,4195.4
80.56,4039.37
80.62,3831.34
80.68,3796.67
80.74,4368.77
80.8,4039.37
80.86,3952.69
80.92,4091.38
80.98,3900.68
81.04,4195.4
81.1,3640.64
81.16,3900.68
81.22,4074.05
81.28,3796.67
81.34,3970.03
81.4,4247.41
81.46,4386.1
81.52,3709.98
81.58,4056.71
81.64,4022.04
81.7,4108.72
81.76,4455.45
81.82,4230.07
81.88,3623.3
81.94,3918.02
82,4507.46
82.06,4264.75
82.12,4108.72
82.18,3727.32
82.24,4282.08
82.3,3779.33
82.36,4195.4
82.42,3449.94
82.48,3952.69
82.54,3900.68
82.6,3883.35
82.66,3970.03
82.72,3970.03
82.78,3866.01
82.84,3709.98
82.9,3796.67
82.96,3918.02
83.02,4004.7
83.08,3866.01
83.14,3519.28
83.2,3848.67
83.26,4143.39
83.32,3900.68
83.38,3761.99
83.44,4091.38
83.5,4230.07
83.56,3935.36
83.62,3553.96
83.68,3675.31
83.74,4004.7
83.8,3553.96
83.86,3900.68
83.92,3987.37
83.98,4178.07
84.04,3918.02
84.1,4004.7
84.16,3744.66
84.22,3675.31
84.28,4022.04
84.34,3918.02
84.4,3657.97
84.46,3796.67
84.52,3779.33
84.58,3761.99
84.64,3918.02
84.7,3397.93
84.76,3536.62
84.82,3536.62
84.88,3814
84.94,3744.66
85,3536.62
85.06,3467.27
85.12,3779.33
85.18,4022.04
85.24,3814
85.3,3814
85.36,3588.63
85.42,4004.7
85.48,3553.96
85.54,3605.97
85.6,3224.56
85.66,3692.65
85.72,3259.24
85.78,3605.97
85.84,4056.71
85.9,3276.57
85.96,3207.23
86.02,3432.6
86.08,3744.66
86.14,4039.37
86.2,3588.63
86.26,3779.33
86.32,3657.97
86.38,3900.68
86.44,3831.34
86.5,3796.67
86.56,3814
86.62,3224.56
86.68,3345.92
86.74,3605.97
86.8,3709.98
86.86,3467.27
86.92,3519.28
86.98,3761.99
87.04,4212.74
87.1,3519.28
87.16,3623.3
87.22,3744.66
87.28,3259.24
87.34,3501.95
87.4,3657.97
87.46,3536.62
87.52,3588.63
87.58,3761.99
87.64,3501.95
87.7,3415.26
87.76,3276.57
87.82,3553.96
87.88,3276.57
87.94,3675.31
88,3553.96
88.06,3328.58
88.12,3051.2
88.18,3848.67
88.24,3345.92
88.3,3259.24
88.36,3432.6
88.42,3293.91
88.48,3276.57
88.54,3172.56
88.6,3761.99
88.66,3432.6
88.72,2964.52
88.78,3155.22
88.84,3241.9
88.9,3241.9
88.96,3761.99
89.02,3397.93
89.08,3709.98
89.14,3345.92
89.2,3484.61
89.26,3675.31
89.32,3952.69
89.38,3103.21
89.44,3432.6
89.5,3605.97
89.56,3155.22
89.62,3623.3
89.68,3241.9
89.74,3692.65
89.8,3397.93
89.86,3484.61
89.92,3553.96
89.98,4178.07
90,3952.69