File: program/database/experiments/MU/xrd/903_ppo_chloranil_liftfsi_for_xrd_100/xrd.csv
x,y
10,20612.9
10.06,22294.6
10.12,21531.8
10.18,21497.1
10.24,21271.7
10.3,21861.2
10.36,22641.3
10.42,22832
10.48,23473.4
10.54,24513.6
10.6,27044.7
10.66,30304
10.72,35140.8
10.78,37654.6
10.84,43843.7
10.9,31222.8
10.96,21185
11.02,19780.8
11.08,20404.9
11.14,20404.9
11.2,20162.2
11.26,21687.8
11.32,20318.2
11.38,20821
11.44,19746.1
11.5,20717
11.56,19988.8
11.62,20456.9
11.68,20023.5
11.74,19902.2
11.8,19936.8
11.86,18255.2
11.92,19780.8
11.98,19988.8
12.04,19260.7
12.1,19000.7
12.16,19711.5
12.22,19451.4
12.28,19243.4
12.34,19832.8
12.4,19434.1
12.46,19572.8
12.52,19624.8
12.58,19330.1
12.64,19954.2
12.7,19780.8
12.76,19295.4
12.82,19156.7
12.88,19850.1
12.94,18549.9
13,18636.6
13.06,18359.2
13.12,18966
13.18,18047.2
13.24,19572.8
13.3,18601.9
13.36,19018
13.42,18237.9
13.48,19260.7
13.54,19191.4
13.6,18792.6
13.66,18705.9
13.72,17908.5
13.78,19676.8
13.84,18359.2
13.9,18810
13.96,18775.3
14.02,19746.1
14.08,18099.2
14.14,18393.9
14.2,18497.9
14.26,18133.8
14.32,18445.9
14.38,19052.7
14.44,17371
14.5,18047.2
14.56,17527.1
14.62,17995.2
14.68,18376.6
14.74,18012.5
14.8,18081.8
14.86,17648.4
14.92,17440.4
14.98,17561.7
15.04,17128.3
15.1,18237.9
15.16,17995.2
15.22,17752.4
15.28,17752.4
15.34,17752.4
15.4,17873.8
15.46,18775.3
15.52,16798.9
15.58,17249.7
15.64,18168.5
15.7,18185.9
15.76,18497.9
15.82,16816.3
15.88,16798.9
15.94,17717.8
16,17631.1
16.06,17128.3
16.12,17076.3
16.18,16538.9
16.24,17128.3
16.3,17665.8
16.36,17700.4
16.42,17180.3
16.48,17700.4
16.54,18740.6
16.6,17059
16.66,17301.7
16.72,18064.5
16.78,18705.9
16.84,18723.3
16.9,22277.2
16.96,24929.7
17.02,30945.4
17.08,40445.8
17.14,56863.3
17.2,75725.3
17.26,52823.9
17.32,23109.4
17.38,18393.9
17.44,17492.4
17.5,16642.9
17.56,16781.6
17.62,16174.8
17.68,15966.8
17.74,16573.6
17.8,15949.5
17.86,16140.2
17.92,15706.8
17.98,16434.9
18.04,17319
18.1,18844.6
18.16,20456.9
18.22,26021.9
18.28,33112.5
18.34,44918.5
18.4,40549.8
18.46,19919.5
18.52,16036.1
18.58,17960.5
18.64,15932.1
18.7,15706.8
18.76,18133.8
18.82,20231.5
18.88,24062.9
18.94,34672.7
19,49426
19.06,73142.1
19.12,116327
19.18,136784
19.24,59429.1
19.3,21237.1
19.36,20404.9
19.42,22242.6
19.48,28483.7
19.54,30581.4
19.6,20769
19.66,15290.7
19.72,14735.9
19.78,15290.7
19.84,14198.5
19.9,13678.4
19.96,13782.4
20.02,14042.5
20.08,13695.7
20.14,13765.1
20.2,13955.8
20.26,13609.1
20.32,12898.3
20.38,13973.1
20.44,13366.3
20.5,13921.1
20.56,12984.9
20.62,13557
20.68,13661.1
20.74,13834.4
20.8,13782.4
20.86,13591.7
20.92,13002.3
20.98,13591.7
21.04,13071.6
21.1,13505
21.16,13557
21.22,13297
21.28,13505
21.34,16174.8
21.4,15741.4
21.46,14198.5
21.52,13418.4
21.58,15776.1
21.64,17596.4
21.7,22572
21.76,19486.1
21.82,15030.6
21.88,13557
21.94,11875.4
22,13123.6
22.06,13175.6
22.12,13158.3
22.18,13158.3
22.24,13609.1
22.3,12724.9
22.36,12724.9
22.42,13141
22.48,13886.4
22.54,13123.6
22.6,12551.5
22.66,12846.3
22.72,12534.2
22.78,12759.6
22.84,12395.5
22.9,14389.2
22.96,16868.3
23.02,22537.3
23.08,35504.9
23.14,54817.6
23.2,42924.9
23.26,20318.2
23.32,12898.3
23.38,12568.9
23.44,13297
23.5,12031.4
23.56,12135.5
23.62,12412.8
23.68,11979.4
23.74,11944.8
23.8,12118.1
23.86,12135.5
23.92,11684.7
23.98,12412.8
24.04,12308.8
24.1,13071.6
24.16,11684.7
24.22,11719.4
24.28,12308.8
24.34,13193
24.4,14007.8
24.46,17163
24.52,22311.9
24.58,36597.1
24.64,66797
24.7,70229.6
24.76,38434.7
24.82,29783.9
24.88,48680.5
24.94,79071.2
25,53240
25.06,22519.9
25.12,14059.8
25.18,15134.7
25.24,18116.5
25.3,18914
25.36,14562.6
25.42,11771.4
25.48,12014.1
25.54,12343.5
25.6,10783.2
25.66,11650
25.72,11286
25.78,10731.2
25.84,11164.6
25.9,11060.6
25.96,10557.8
26.02,11268.6
26.08,11164.6
26.14,10904.6
26.2,11303.3
26.26,10332.5
26.32,10627.2
26.38,11355.3
26.44,10523.2
26.5,11216.6
26.56,10228.5
26.62,10991.3
26.68,11130
26.74,10193.8
26.8,9639.02
26.86,10644.5
26.92,10107.1
26.98,9812.39
27.04,10072.4
27.1,10592.5
27.16,9795.05
27.22,9743.04
27.28,10731.2
27.34,10627.2
27.4,10349.8
27.46,10193.8
27.52,10540.5
27.58,9812.39
27.64,10211.1
27.7,9795.05
27.76,9916.4
27.82,10107.1
27.88,10523.2
27.94,10315.1
28,9708.37
28.06,9760.38
28.12,9552.34
28.18,10575.2
28.24,9933.74
28.3,9725.7
28.36,10384.5
28.42,9708.37
28.48,9378.98
28.54,9777.71
28.6,9864.39
28.66,12447.5
28.72,13245
28.78,15516.1
28.84,24097.6
28.9,42647.5
28.96,32193.6
29.02,18653.9
29.08,9795.05
29.14,9829.72
29.2,10089.8
29.26,9396.31
29.32,10020.4
29.38,9673.69
29.44,9604.35
29.5,9708.37
29.56,9309.63
29.62,8962.9
29.68,9378.98
29.74,9691.03
29.8,10055.1
29.86,8806.88
29.92,9500.33
29.98,9777.71
30.04,10141.8
30.1,10003.1
30.16,9465.66
30.22,9292.29
30.28,9413.65
30.34,9517.67
30.4,8876.22
30.46,9378.98
30.52,8616.18
30.58,9274.96
30.64,8616.18
30.7,9413.65
30.76,9257.62
30.82,9049.58
30.88,8962.9
30.94,8893.56
31,8477.49
31.06,8581.5
31.12,8824.21
31.18,9413.65
31.24,8945.57
31.3,8997.58
31.36,8806.88
31.42,9205.61
31.48,9639.02
31.54,9101.59
31.6,9084.26
31.66,8390.8
31.72,9743.04
31.78,9413.65
31.84,9587.01
31.9,12915.6
31.96,20682.3
32.02,31396.2
32.08,22207.9
32.14,14649.2
32.2,9812.39
32.26,8650.85
32.32,8737.53
32.38,8772.2
32.44,8928.23
32.5,8668.19
32.56,9032.25
32.62,9101.59
32.68,8824.21
32.74,10037.8
32.8,9656.36
32.86,9656.36
32.92,10540.5
32.98,13782.4
33.04,13366.3
33.1,11996.8
33.16,13245
33.22,16851
33.28,30737.4
33.34,73454.2
33.4,82850.5
33.46,48264.5
33.52,20283.6
33.58,11199.3
33.64,9500.33
33.7,9032.25
33.76,8980.24
33.82,9188.28
33.88,8876.22
33.94,8356.13
34,8893.56
34.06,9725.7
34.12,10557.8
34.18,16434.9
34.24,15325.4
34.3,13435.7
34.36,10159.1
34.42,9222.95
34.48,8616.18
34.54,7662.68
34.6,9084.26
34.66,9743.04
34.72,11234
34.78,15897.5
34.84,17596.4
34.9,13470.4
34.96,11476.7
35.02,8234.78
35.08,8356.13
35.14,8234.78
35.2,8321.46
35.26,8130.76
35.32,8286.79
35.38,8304.12
35.44,8494.82
35.5,8373.47
35.56,7974.73
35.62,7697.35
35.68,8200.1
35.74,7506.65
35.8,7940.06
35.86,8633.51
35.92,8356.13
35.98,8234.78
36.04,8980.24
36.1,10973.9
36.16,9829.72
36.22,9743.04
36.28,9604.35
36.34,11840.7
36.4,19087.3
36.46,16712.3
36.52,13539.7
36.58,9118.93
36.64,8858.89
36.7,8529.49
36.76,7957.39
36.82,8494.82
36.88,8269.45
36.94,7732.02
37,8477.49
37.06,10644.5
37.12,15082.6
37.18,20491.6
37.24,15238.7
37.3,12274.2
37.36,9066.92
37.42,8165.43
37.48,7732.02
37.54,8286.79
37.6,7593.33
37.66,8113.42
37.72,7836.04
37.78,7922.72
37.84,8598.84
37.9,9240.29
37.96,12239.5
38.02,18185.9
38.08,20630.3
38.14,33441.9
38.2,52962.6
38.26,32956.4
38.32,28015.6
38.38,15949.5
38.44,20335.6
38.5,16070.8
38.56,13279.7
38.62,9847.06
38.68,7662.68
38.74,7922.72
38.8,8113.42
38.86,10332.5
38.92,10488.5
38.98,9326.97
39.04,8408.14
39.1,7246.6
39.16,7246.6
39.22,7281.28
39.28,7558.66
39.34,8373.47
39.4,7628
39.46,7749.36
39.52,7073.24
39.58,7367.96
39.64,7367.96
39.7,7593.33
39.76,7038.57
39.82,7229.27
39.88,7107.91
39.94,7177.26
40,7090.58
40.06,7038.57
40.12,7107.91
40.18,7662.68
40.24,6934.55
40.3,7125.25
40.36,7419.97
40.42,7662.68
40.48,6639.83
40.54,7419.97
40.6,6830.53
40.66,7315.95
40.72,7593.33
40.78,7888.05
40.84,10852.6
40.9,15204
40.96,13019.6
41.02,13851.8
41.08,10713.9
41.14,8685.52
41.2,8546.83
41.26,7992.07
41.32,7593.33
41.38,6951.88
41.44,7801.37
41.5,6743.85
41.56,7593.33
41.62,7315.95
41.68,7662.68
41.74,6795.86
41.8,7662.68
41.86,7263.94
41.92,6795.86
41.98,6605.16
42.04,7333.28
42.1,6709.18
42.16,7177.26
42.22,6969.22
42.28,7073.24
42.34,7662.68
42.4,9829.72
42.46,13453
42.52,9847.06
42.58,9205.61
42.64,7506.65
42.7,7038.57
42.76,7558.66
42.82,8754.87
42.88,9725.7
42.94,8702.86
43,7836.04
43.06,7870.71
43.12,9864.39
43.18,8477.49
43.24,7229.27
43.3,7419.97
43.36,6969.22
43.42,6778.52
43.48,6535.81
43.54,6847.87
43.6,6449.13
43.66,6726.51
43.72,6795.86
43.78,6535.81
43.84,6969.22
43.9,8616.18
43.96,11702
44.02,13366.3
44.08,10020.4
44.14,9430.99
44.2,7246.6
44.26,7246.6
44.32,8494.82
44.38,13245
44.44,20821
44.5,16382.9
44.56,13730.4
44.62,9205.61
44.68,6275.77
44.74,7402.63
44.8,6345.11
44.86,6553.15
44.92,6223.76
44.98,6518.48
45.04,7766.69
45.1,9222.95
45.16,7992.07
45.22,7281.28
45.28,6639.83
45.34,6501.14
45.4,6067.73
45.46,6310.44
45.52,6379.78
45.58,5963.71
45.64,6258.43
45.7,6397.12
45.76,6033.06
45.82,5929.04
45.88,5894.37
45.94,6241.09
46,5495.63
46.06,6327.78
46.12,6223.76
46.18,6189.08
46.24,6379.78
46.3,6362.45
46.36,7021.23
46.42,6483.8
46.48,6795.86
46.54,6085.07
46.6,6085.07
46.66,6345.11
46.72,6795.86
46.78,8217.44
46.84,12170.1
46.9,12135.5
46.96,9222.95
47.02,9066.92
47.08,6691.84
47.14,6397.12
47.2,6535.81
47.26,7454.64
47.32,9084.26
47.38,9413.65
47.44,8269.45
47.5,8685.52
47.56,6691.84
47.62,6535.81
47.68,6275.77
47.74,6293.1
47.8,5825.02
47.86,6258.43
47.92,6102.4
47.98,6553.15
48.04,6171.75
48.1,6119.74
48.16,5773.01
48.22,6241.09
48.28,7974.73
48.34,9985.75
48.4,7992.07
48.46,10557.8
48.52,9413.65
48.58,7281.28
48.64,8512.16
48.7,6518.48
48.76,6119.74
48.82,6761.18
48.88,5252.92
48.94,5859.69
49,5738.34
49.06,5495.63
49.12,5391.61
49.18,5825.02
49.24,5998.38
49.3,6882.54
49.36,6414.46
49.42,7021.23
49.48,7211.93
49.54,6691.84
49.6,6241.09
49.66,6986.56
49.72,6795.86
49.78,6449.13
49.84,7454.64
49.9,8876.22
49.96,8598.84
50.02,13366.3
50.08,8096.08
50.14,8980.24
50.2,6778.52
50.26,6015.72
50.32,6275.77
50.38,6137.08
50.44,6795.86
50.5,6847.87
50.56,6691.84
50.62,6449.13
50.68,6067.73
50.74,6223.76
50.8,6449.13
50.86,6050.39
50.92,6726.51
50.98,5512.97
51.04,5842.36
51.1,6206.42
51.16,7749.36
51.22,10245.8
51.28,8945.57
51.34,8165.43
51.4,7801.37
51.46,9188.28
51.52,7523.98
51.58,6605.16
51.64,6501.14
51.7,5183.57
51.76,5183.57
51.82,4854.18
51.88,5062.22
51.94,4732.83
52,5044.88
52.06,5391.61
52.12,5027.55
52.18,5582.31
52.24,6085.07
52.3,6674.5
52.36,6241.09
52.42,5929.04
52.48,4940.87
52.54,4715.49
52.6,4438.11
52.66,4351.43
52.72,4195.4
52.78,4559.47
52.84,4958.2
52.9,4403.44
52.96,4854.18
53.02,4490.12
53.08,4732.83
53.14,4923.53
53.2,4628.81
53.26,5218.25
53.32,5200.91
53.38,4992.87
53.44,5235.58
53.5,6085.07
53.56,5616.98
53.62,5287.59
53.68,5218.25
53.74,4542.13
53.8,4056.71
53.86,4091.38
53.92,4299.42
53.98,4698.16
54.04,6327.78
54.1,8061.41
54.16,9691.03
54.22,8390.8
54.28,7940.06
54.34,6085.07
54.4,5304.93
54.46,4178.07
54.52,4230.07
54.58,4178.07
54.64,4039.37
54.7,3848.67
54.76,4732.83
54.82,4230.07
54.88,4091.38
54.94,4039.37
55,3814
55.06,3675.31
55.12,3397.93
55.18,3883.35
55.24,4212.74
55.3,6015.72
55.36,5235.58
55.42,5252.92
55.48,5062.22
55.54,4351.43
55.6,3866.01
55.66,4368.77
55.72,5287.59
55.78,6362.45
55.84,4004.7
55.9,4940.87
55.96,4195.4
56.02,4178.07
56.08,3935.36
56.14,3432.6
56.2,3293.91
56.26,3623.3
56.32,4022.04
56.38,4750.17
56.44,6934.55
56.5,6813.19
56.56,5530.3
56.62,6223.76
56.68,4802.17
56.74,3640.64
56.8,3328.58
56.86,4091.38
56.92,4524.79
56.98,4212.74
57.04,4386.1
57.1,3814
57.16,3484.61
57.22,3571.29
57.28,4160.73
57.34,3779.33
57.4,3796.67
57.46,3605.97
57.52,5148.9
57.58,4836.85
57.64,3605.97
57.7,4264.75
57.76,3970.03
57.82,3918.02
57.88,3796.67
57.94,3345.92
58,3276.57
58.06,3467.27
58.12,3657.97
58.18,3224.56
58.24,3397.93
58.3,3623.3
58.36,3588.63
58.42,4403.44
58.48,5374.27
58.54,3779.33
58.6,3866.01
58.66,4143.39
58.72,4126.06
58.78,3519.28
58.84,4056.71
58.9,3744.66
58.96,3553.96
59.02,3675.31
59.08,3484.61
59.14,3571.29
59.2,3814
59.26,3311.25
59.32,3207.23
59.38,3189.89
59.44,2999.19
59.5,3189.89
59.56,3311.25
59.62,3761.99
59.68,3831.34
59.74,4178.07
59.8,5443.62
59.86,8078.75
59.92,7784.03
59.98,6119.74
60.04,6657.17
60.1,5270.26
60.16,3987.37
60.22,3588.63
60.28,4507.46
60.34,3987.37
60.4,3501.95
60.46,3224.56
60.52,3519.28
60.58,3363.26
60.64,2739.15
60.7,3276.57
60.76,3328.58
60.82,3241.9
60.88,3380.59
60.94,3051.2
61,3484.61
61.06,3744.66
61.12,4022.04
61.18,4594.14
61.24,4420.77
61.3,5530.3
61.36,5998.38
61.42,3970.03
61.48,4126.06
61.54,4143.39
61.6,3328.58
61.66,3345.92
61.72,2999.19
61.78,3155.22
61.84,3172.56
61.9,3432.6
61.96,3259.24
62.02,3259.24
62.08,3189.89
62.14,3189.89
62.2,3328.58
62.26,3345.92
62.32,3415.26
62.38,4247.41
62.44,4334.09
62.5,3831.34
62.56,4212.74
62.62,3709.98
62.68,3137.88
62.74,3259.24
62.8,3155.22
62.86,3016.53
62.92,2756.48
62.98,2513.77
63.04,3016.53
63.1,2687.14
63.16,3328.58
63.22,3571.29
63.28,3432.6
63.34,3623.3
63.4,4212.74
63.46,3276.57
63.52,3640.64
63.58,3571.29
63.64,2773.82
63.7,2825.83
63.76,3120.55
63.82,2843.16
63.88,2860.5
63.94,3432.6
64,3883.35
64.06,4108.72
64.12,3467.27
64.18,3588.63
64.24,3883.35
64.3,3467.27
64.36,3796.67
64.42,3311.25
64.48,3155.22
64.54,3727.32
64.6,4230.07
64.66,4698.16
64.72,4212.74
64.78,4663.48
64.84,5235.58
64.9,4386.1
64.96,3744.66
65.02,3779.33
65.08,3779.33
65.14,3016.53
65.2,2929.85
65.26,3311.25
65.32,4351.43
65.38,5010.21
65.44,5773.01
65.5,7229.27
65.56,5062.22
65.62,4646.15
65.68,4542.13
65.74,3866.01
65.8,4247.41
65.86,3467.27
65.92,4611.47
65.98,4594.14
66.04,4264.75
66.1,5079.56
66.16,4698.16
66.22,3467.27
66.28,3467.27
66.34,3571.29
66.4,2981.86
66.46,3172.56
66.52,3120.55
66.58,3744.66
66.64,3588.63
66.7,3155.22
66.76,3328.58
66.82,3276.57
66.88,3259.24
66.94,4039.37
67,4576.8
67.06,3900.68
67.12,4247.41
67.18,4074.05
67.24,3415.26
67.3,3189.89
67.36,3432.6
67.42,2565.78
67.48,2895.17
67.54,2704.47
67.6,2964.52
67.66,3640.64
67.72,4386.1
67.78,3155.22
67.84,3189.89
67.9,3675.31
67.96,2929.85
68.02,3259.24
68.08,3016.53
68.14,2721.81
68.2,2947.18
68.26,2617.79
68.32,2895.17
68.38,2981.86
68.44,3103.21
68.5,3328.58
68.56,3311.25
68.62,3311.25
68.68,3605.97
68.74,3588.63
68.8,5096.89
68.86,4559.47
68.92,3345.92
68.98,3831.34
69.04,3415.26
69.1,3068.54
69.16,3051.2
69.22,3623.3
69.28,3519.28
69.34,3137.88
69.4,2981.86
69.46,3328.58
69.52,2392.42
69.58,2600.46
69.64,3033.86
69.7,2756.48
69.76,2652.46
69.82,2513.77
69.88,2669.8
69.94,2479.1
70,2184.38
70.06,2687.14
70.12,2721.81
70.18,2687.14
70.24,3085.87
70.3,2704.47
70.36,2912.51
70.42,2583.12
70.48,2617.79
70.54,2600.46
70.6,2600.46
70.66,2739.15
70.72,2739.15
70.78,2756.48
70.84,2409.76
70.9,2687.14
70.96,2479.1
71.02,2635.13
71.08,2791.16
71.14,3016.53
71.2,2877.84
71.26,2843.16
71.32,2461.76
71.38,2548.45
71.44,2669.8
71.5,2669.8
71.56,2895.17
71.62,2600.46
71.68,2600.46
71.74,2912.51
71.8,2773.82
71.86,2305.74
71.92,2964.52
71.98,2860.5
72.04,3657.97
72.1,3432.6
72.16,3033.86
72.22,3276.57
72.28,4143.39
72.34,4022.04
72.4,3657.97
72.46,3363.26
72.52,3918.02
72.58,4992.87
72.64,3952.69
72.7,3415.26
72.76,3796.67
72.82,3935.36
72.88,4091.38
72.94,3328.58
73,2895.17
73.06,3207.23
73.12,3692.65
73.18,2756.48
73.24,2912.51
73.3,2843.16
73.36,2981.86
73.42,2791.16
73.48,3033.86
73.54,3016.53
73.6,2652.46
73.66,3137.88
73.72,3137.88
73.78,3259.24
73.84,3051.2
73.9,3155.22
73.96,3085.87
74.02,3033.86
74.08,3796.67
74.14,3640.64
74.2,4351.43
74.26,5166.24
74.32,3952.69
74.38,4212.74
74.44,4178.07
74.5,4126.06
74.56,3397.93
74.62,3033.86
74.68,3311.25
74.74,3536.62
74.8,3883.35
74.86,3501.95
74.92,3831.34
74.98,3345.92
75.04,2999.19
75.1,3276.57
75.16,3571.29
75.22,3657.97
75.28,3900.68
75.34,3553.96
75.4,3380.59
75.46,3501.95
75.52,3484.61
75.58,3484.61
75.64,3623.3
75.7,3952.69
75.76,8789.54
75.82,5547.64
75.88,5322.27
75.94,6535.81
76,6813.19
76.06,6466.47
76.12,6137.08
76.18,6015.72
76.24,5703.67
76.3,5911.7
76.36,6587.82
76.42,6362.45
76.48,5773.01
76.54,6206.42
76.6,5963.71
76.66,4992.87
76.72,5148.9
76.78,4455.45
76.84,3796.67
76.9,3293.91
76.96,3779.33
77.02,3900.68
77.08,3952.69
77.14,4420.77
77.2,4282.08
77.26,3918.02
77.32,3761.99
77.38,4091.38
77.44,3935.36
77.5,3675.31
77.56,3675.31
77.62,3519.28
77.68,4472.78
77.74,4091.38
77.8,3363.26
77.86,3727.32
77.92,3692.65
77.98,3779.33
78.04,3051.2
78.1,2999.19
78.16,3259.24
78.22,3293.91
78.28,3848.67
78.34,3709.98
78.4,4091.38
78.46,4230.07
78.52,4594.14
78.58,3519.28
78.64,4039.37
78.7,4455.45
78.76,4126.06
78.82,4888.86
78.88,4490.12
78.94,4282.08
79,4698.16
79.06,4160.73
79.12,3900.68
79.18,3449.94
79.24,3761.99
79.3,3553.96
79.36,3293.91
79.42,4022.04
79.48,3918.02
79.54,5322.27
79.6,5183.57
79.66,5235.58
79.72,5096.89
79.78,4160.73
79.84,3900.68
79.9,3935.36
79.96,4490.12
80.02,4299.42
80.08,3935.36
80.14,3328.58
80.2,3276.57
80.26,3848.67
80.32,4074.05
80.38,3293.91
80.44,3189.89
80.5,3605.97
80.56,2999.19
80.62,3085.87
80.68,3033.86
80.74,2912.51
80.8,3363.26
80.86,3155.22
80.92,3051.2
80.98,3241.9
81.04,3363.26
81.1,3519.28
81.16,3311.25
81.22,3328.58
81.28,3397.93
81.34,3293.91
81.4,3103.21
81.46,3744.66
81.52,3120.55
81.58,4074.05
81.64,3761.99
81.7,3536.62
81.76,3779.33
81.82,3952.69
81.88,5183.57
81.94,3588.63
82,3449.94
82.06,4698.16
82.12,5200.91
82.18,4091.38
82.24,3293.91
82.3,3727.32
82.36,3848.67
82.42,3883.35
82.48,3085.87
82.54,3016.53
82.6,3623.3
82.66,4108.72
82.72,3848.67
82.78,3987.37
82.84,3623.3
82.9,3571.29
82.96,3779.33
83.02,3449.94
83.08,3259.24
83.14,3345.92
83.2,3259.24
83.26,3155.22
83.32,3224.56
83.38,3276.57
83.44,3224.56
83.5,3033.86
83.56,2773.82
83.62,2964.52
83.68,3501.95
83.74,3137.88
83.8,3224.56
83.86,2825.83
83.92,2999.19
83.98,3241.9
84.04,2704.47
84.1,2843.16
84.16,3051.2
84.22,3293.91
84.28,3120.55
84.34,3103.21
84.4,2895.17
84.46,3415.26
84.52,3709.98
84.58,3970.03
84.64,4230.07
84.7,4056.71
84.76,3224.56
84.82,3016.53
84.88,3397.93
84.94,3501.95
85,3189.89
85.06,3051.2
85.12,3051.2
85.18,3241.9
85.24,2704.47
85.3,2843.16
85.36,2860.5
85.42,3241.9
85.48,2912.51
85.54,2981.86
85.6,2669.8
85.66,3415.26
85.72,3241.9
85.78,3033.86
85.84,3744.66
85.9,3345.92
85.96,3449.94
86.02,3449.94
86.08,3189.89
86.14,2860.5
86.2,2635.13
86.26,3484.61
86.32,3328.58
86.38,2565.78
86.44,3276.57
86.5,2617.79
86.56,2860.5
86.62,2877.84
86.68,2427.09
86.74,2895.17
86.8,2877.84
86.86,2704.47
86.92,2739.15
86.98,3155.22
87.04,3051.2
87.1,2652.46
87.16,2617.79
87.22,3085.87
87.28,3051.2
87.34,2687.14
87.4,2479.1
87.46,2791.16
87.52,2912.51
87.58,2843.16
87.64,2600.46
87.7,2947.18
87.76,2669.8
87.82,2548.45
87.88,2912.51
87.94,2791.16
88,2427.09
88.06,2427.09
88.12,3033.86
88.18,3796.67
88.24,3068.54
88.3,2531.11
88.36,2704.47
88.42,2687.14
88.48,2617.79
88.54,2565.78
88.6,2479.1
88.66,2461.76
88.72,2791.16
88.78,2843.16
88.84,2704.47
88.9,2773.82
88.96,3449.94
89.02,3467.27
89.08,2947.18
89.14,3120.55
89.2,2617.79
89.26,2357.75
89.32,3155.22
89.38,2843.16
89.44,3085.87
89.5,2687.14
89.56,3103.21
89.62,2479.1
89.68,2791.16
89.74,2860.5
89.8,2288.4
89.86,2912.51
89.92,2652.46
89.98,2704.47
90,2947.18