File: program/database/experiments/MU/xrd/1102/parallel/liftfsi/xrd/100.TXT
Sample
Comments
Filename	C:\Data\西出研\梅木\20211102オペ\LiFTFSI_03_0001_0099-4_C_2θ.raw
Goniometer	SmartLab(In-plane)
Attachment	標準Zステージ
Monochromater	None
X	0
Y	0
Z	0.00908
ScanningMode	2Theta
ScanningType	Continuos Scanning
X-Ray	40kV/30mA
入射スリット	0.300mm
受光スリット1	20.000mm
受光スリット2	20.000mm
None
Start	5
Stop	60
Step	0.02
Speed	21.6746
Theta	0
5	3811.11
5.04	3269.25
5.08	3088.63
5.12	3197
5.16	3485.99
5.2	3558.24
5.24	3070.56
5.28	3269.25
5.32	3197
5.36	3233.12
5.4	2980.25
5.44	3467.93
5.48	3811.11
5.52	3413.75
5.56	2908.01
5.6	3449.87
5.64	2817.69
5.68	2889.94
5.72	2727.38
5.76	3287.31
5.8	3287.31
5.84	3197
5.88	3178.94
5.92	3558.24
5.96	3142.81
6	3124.75
6.04	3377.62
6.08	3142.81
6.12	3323.44
6.16	3106.69
6.2	3215.06
6.24	3233.12
6.28	3449.87
6.32	3052.5
6.36	3106.69
6.4	3070.56
6.44	2817.69
6.48	3522.12
6.52	2908.01
6.56	3612.43
6.6	3449.87
6.64	2871.88
6.68	3142.81
6.72	2673.2
6.76	2944.13
6.8	3142.81
6.84	2908.01
6.88	3106.69
6.92	3106.69
6.96	3124.75
7	2926.07
7.04	3197
7.08	3449.87
7.12	3287.31
7.16	2908.01
7.2	3052.5
7.24	3124.75
7.28	3233.12
7.32	3070.56
7.36	2763.51
7.4	3485.99
7.44	3341.5
7.48	2763.51
7.52	2962.19
7.56	3323.44
7.6	3215.06
7.64	2998.32
7.68	2908.01
7.72	3630.49
7.76	2980.25
7.8	2853.82
7.84	2944.13
7.88	2709.32
7.92	2853.82
7.96	3305.37
8	3233.12
8.04	3088.63
8.08	3233.12
8.12	2998.32
8.16	2889.94
8.2	2926.07
8.24	3558.24
8.28	2908.01
8.32	3106.69
8.36	3215.06
8.4	3359.56
8.44	3215.06
8.48	2962.19
8.52	3287.31
8.56	3070.56
8.6	2926.07
8.64	2853.82
8.68	2727.38
8.72	2528.7
8.76	2944.13
8.8	2871.88
8.84	3034.44
8.88	2600.95
8.92	3052.5
8.96	2799.63
9	2980.25
9.04	2998.32
9.08	3323.44
9.12	3323.44
9.16	3305.37
9.2	3395.68
9.24	2673.2
9.28	2745.45
9.32	2998.32
9.36	2673.2
9.4	2691.26
9.44	2998.32
9.48	2582.89
9.52	2889.94
9.56	3106.69
9.6	3377.62
9.64	2691.26
9.68	3034.44
9.72	2709.32
9.76	3377.62
9.8	2673.2
9.84	3052.5
9.88	2727.38
9.92	3197
9.96	2835.76
10	2637.07
10.04	3016.38
10.08	2600.95
10.12	2980.25
10.16	2889.94
10.2	3034.44
10.24	2926.07
10.28	2727.38
10.32	3070.56
10.36	2655.14
10.4	2528.7
10.44	2366.14
10.48	2817.69
10.52	2275.83
10.56	2709.32
10.6	2582.89
10.64	2781.57
10.68	2763.51
10.72	2456.45
10.76	2853.82
10.8	2745.45
10.84	2944.13
10.88	2673.2
10.92	2763.51
10.96	2745.45
11	2962.19
11.04	2149.4
11.08	2835.76
11.12	2763.51
11.16	2582.89
11.2	2709.32
11.24	2637.07
11.28	2727.38
11.32	2655.14
11.36	2655.14
11.4	2781.57
11.44	2781.57
11.48	2799.63
11.52	2348.08
11.56	2221.64
11.6	2113.27
11.64	2889.94
11.68	2366.14
11.72	2528.7
11.76	2348.08
11.8	2456.45
11.84	2763.51
11.88	2619.01
11.92	2474.51
11.96	2745.45
12	2221.64
12.04	2600.95
12.08	2727.38
12.12	2637.07
12.16	2619.01
12.2	2709.32
12.24	2799.63
12.28	2474.51
12.32	2691.26
12.36	3052.5
12.4	3016.38
12.44	2889.94
12.48	3341.5
12.52	3774.99
12.56	3359.56
12.6	2673.2
12.64	2528.7
12.68	2438.39
12.72	2673.2
12.76	2980.25
12.8	2691.26
12.84	2564.82
12.88	2763.51
12.92	2456.45
12.96	2384.2
13	2582.89
13.04	2619.01
13.08	2492.58
13.12	2817.69
13.16	2366.14
13.2	2185.52
13.24	2564.82
13.28	2330.02
13.32	2366.14
13.36	2474.51
13.4	2655.14
13.44	2691.26
13.48	2384.2
13.52	2962.19
13.56	2582.89
13.6	2221.64
13.64	2438.39
13.68	2384.2
13.72	2528.7
13.76	2330.02
13.8	2763.51
13.84	2474.51
13.88	2474.51
13.92	2619.01
13.96	2564.82
14	2149.4
14.04	2131.33
14.08	2348.08
14.12	2275.83
14.16	2926.07
14.2	2420.33
14.24	2203.58
14.28	2402.27
14.32	2492.58
14.36	2420.33
14.4	2510.64
14.44	2564.82
14.48	2402.27
14.52	2095.21
14.56	2330.02
14.6	2095.21
14.64	2113.27
14.68	2384.2
14.72	2384.2
14.76	2402.27
14.8	2167.46
14.84	2149.4
14.88	2619.01
14.92	2546.76
14.96	2709.32
15	2727.38
15.04	2510.64
15.08	2438.39
15.12	2348.08
15.16	2781.57
15.2	2330.02
15.24	2510.64
15.28	2384.2
15.32	2456.45
15.36	2835.76
15.4	2113.27
15.44	2293.89
15.48	2908.01
15.52	2330.02
15.56	1752.03
15.6	2402.27
15.64	2384.2
15.68	2221.64
15.72	2944.13
15.76	2348.08
15.8	2619.01
15.84	2474.51
15.88	2438.39
15.92	2510.64
15.96	3178.94
16	3359.56
16.04	4334.92
16.08	3504.06
16.12	2835.76
16.16	2564.82
16.2	2293.89
16.24	2528.7
16.28	2402.27
16.32	1878.46
16.36	2004.9
16.4	2402.27
16.44	2402.27
16.48	2203.58
16.52	2275.83
16.56	2366.14
16.6	2275.83
16.64	2257.77
16.68	2619.01
16.72	2059.08
16.76	2113.27
16.8	2077.15
16.84	2131.33
16.88	2239.71
16.92	2257.77
16.96	2203.58
17	2059.08
17.04	2384.2
17.08	2004.9
17.12	2275.83
17.16	1986.84
17.2	2275.83
17.24	2022.96
17.28	1788.15
17.32	2420.33
17.36	1788.15
17.4	2203.58
17.44	2348.08
17.48	2221.64
17.52	2311.95
17.56	1932.65
17.6	2203.58
17.64	2366.14
17.68	2149.4
17.72	2077.15
17.76	2619.01
17.8	3016.38
17.84	3287.31
17.88	4660.03
17.92	6321.75
17.96	7008.11
18	5761.82
18.04	3160.88
18.08	2311.95
18.12	2077.15
18.16	2239.71
18.2	2420.33
18.24	2366.14
18.28	2637.07
18.32	3395.68
18.36	4226.54
18.4	5256.08
18.44	5111.59
18.48	4407.16
18.52	3287.31
18.56	2384.2
18.6	2348.08
18.64	2131.33
18.68	2041.02
18.72	1986.84
18.76	1968.77
18.8	2149.4
18.84	2293.89
18.88	1968.77
18.92	2257.77
18.96	2095.21
19	2492.58
19.04	2835.76
19.08	3251.19
19.12	4226.54
19.16	5508.95
19.2	5761.82
19.24	4641.97
19.28	3160.88
19.32	2239.71
19.36	2366.14
19.4	2004.9
19.44	2041.02
19.48	2257.77
19.52	2113.27
19.56	2239.71
19.6	2167.46
19.64	2185.52
19.68	1842.34
19.72	2149.4
19.76	1697.84
19.8	2022.96
19.84	1950.71
19.88	2041.02
19.92	2420.33
19.96	2131.33
20	2600.95
20.04	2420.33
20.08	2041.02
20.12	1842.34
20.16	1986.84
20.2	1806.21
20.24	2257.77
20.28	1914.59
20.32	2004.9
20.36	1788.15
20.4	1824.28
20.44	1697.84
20.48	2203.58
20.52	1986.84
20.56	1986.84
20.6	2149.4
20.64	2311.95
20.68	2077.15
20.72	1968.77
20.76	2113.27
20.8	2077.15
20.84	2275.83
20.88	2998.32
20.92	3774.99
20.96	5761.82
21	7549.98
21.04	6502.37
21.08	4389.1
21.12	3305.37
21.16	1950.71
21.2	1896.53
21.24	1733.97
21.28	1878.46
21.32	1824.28
21.36	1715.9
21.4	1517.22
21.44	1842.34
21.48	1715.9
21.52	1914.59
21.56	2059.08
21.6	2113.27
21.64	1770.09
21.68	1896.53
21.72	1661.72
21.76	2149.4
21.8	1715.9
21.84	1589.47
21.88	2004.9
21.92	1752.03
21.96	1986.84
22	1589.47
22.04	1788.15
22.08	1715.9
22.12	1571.41
22.16	1697.84
22.2	1715.9
22.24	1842.34
22.28	1715.9
22.32	1444.97
22.36	1733.97
22.4	1625.59
22.44	1499.16
22.48	1336.6
22.52	1878.46
22.56	2095.21
22.6	2077.15
22.64	2041.02
22.68	1571.41
22.72	1679.78
22.76	1228.23
22.8	1625.59
22.84	1752.03
22.88	1553.34
22.92	1770.09
22.96	1860.4
23	1481.1
23.04	2041.02
23.08	1607.53
23.12	1607.53
23.16	1932.65
23.2	1444.97
23.24	2149.4
23.28	1950.71
23.32	2293.89
23.36	2095.21
23.4	1788.15
23.44	1607.53
23.48	1499.16
23.52	1246.29
23.56	1517.22
23.6	1553.34
23.64	1463.03
23.68	1661.72
23.72	1282.41
23.76	1372.72
23.8	1228.23
23.84	1571.41
23.88	1535.28
23.92	1481.1
23.96	1444.97
24	1715.9
24.04	1101.79
24.08	1643.66
24.12	1571.41
24.16	1607.53
24.2	1444.97
24.24	1625.59
24.28	1192.1
24.32	1463.03
24.36	1426.91
24.4	1318.54
24.44	1463.03
24.48	1354.66
24.52	1336.6
24.56	1264.35
24.6	1354.66
24.64	1390.79
24.68	1553.34
24.72	1336.6
24.76	1426.91
24.8	1372.72
24.84	1174.04
24.88	1300.47
24.92	1517.22
24.96	1246.29
25	1174.04
25.04	1643.66
25.08	1697.84
25.12	1715.9
25.16	1752.03
25.2	2041.02
25.24	2041.02
25.28	2221.64
25.32	2673.2
25.36	2962.19
25.4	3504.06
25.44	4334.92
25.48	5183.84
25.52	6195.32
25.56	5436.71
25.6	4389.1
25.64	2564.82
25.68	2004.9
25.72	1643.66
25.76	1661.72
25.8	1228.23
25.84	1228.23
25.88	1589.47
25.92	1444.97
25.96	1119.85
26	1553.34
26.04	1426.91
26.08	1300.47
26.12	1571.41
26.16	1806.21
26.2	2203.58
26.24	3160.88
26.28	2763.51
26.32	2348.08
26.36	2131.33
26.4	1372.72
26.44	1444.97
26.48	1553.34
26.52	1697.84
26.56	2022.96
26.6	1354.66
26.64	1481.1
26.68	1210.16
26.72	1174.04
26.76	975.356
26.8	1192.1
26.84	1336.6
26.88	1210.16
26.92	1119.85
26.96	1155.98
27	1065.67
27.04	1192.1
27.08	1300.47
27.12	1354.66
27.16	1155.98
27.2	1444.97
27.24	1372.72
27.28	1499.16
27.32	1517.22
27.36	2293.89
27.4	4226.54
27.44	5346.4
27.48	5219.96
27.52	3829.18
27.56	2727.38
27.6	1589.47
27.64	1282.41
27.68	1390.79
27.72	1408.85
27.76	1499.16
27.8	1517.22
27.84	1499.16
27.88	1444.97
27.92	1318.54
27.96	1119.85
28	1372.72
28.04	1210.16
28.08	1119.85
28.12	903.107
28.16	1101.79
28.2	1029.54
28.24	1192.1
28.28	1101.79
28.32	957.294
28.36	848.921
28.4	1011.48
28.44	939.232
28.48	1101.79
28.52	1137.92
28.56	1101.79
28.6	921.169
28.64	1354.66
28.68	812.797
28.72	1137.92
28.76	921.169
28.8	939.232
28.84	1011.48
28.88	939.232
28.92	903.107
28.96	921.169
29	1047.6
29.04	1011.48
29.08	1228.23
29.12	794.734
29.16	1011.48
29.2	1083.73
29.24	903.107
29.28	885.045
29.32	1083.73
29.36	1011.48
29.4	957.294
29.44	866.983
29.48	885.045
29.52	993.418
29.56	758.61
29.6	776.672
29.64	1065.67
29.68	957.294
29.72	1300.47
29.76	1535.28
29.8	1408.85
29.84	1571.41
29.88	1228.23
29.92	1155.98
29.96	903.107
30	632.175
30.04	885.045
30.08	1011.48
30.12	577.989
30.16	921.169
30.2	1011.48
30.24	794.734
30.28	993.418
30.32	1011.48
30.36	1246.29
30.4	1571.41
30.44	1499.16
30.48	1372.72
30.52	1119.85
30.56	903.107
30.6	758.61
30.64	993.418
30.68	866.983
30.72	1029.54
30.76	1029.54
30.8	921.169
30.84	939.232
30.88	740.548
30.92	848.921
30.96	885.045
31	1011.48
31.04	668.299
31.08	1029.54
31.12	830.859
31.16	885.045
31.2	1192.1
31.24	993.418
31.28	1011.48
31.32	939.232
31.36	1210.16
31.4	957.294
31.44	1174.04
31.48	921.169
31.52	1029.54
31.56	1029.54
31.6	921.169
31.64	650.237
31.68	866.983
31.72	957.294
31.76	1192.1
31.8	704.424
31.84	866.983
31.88	830.859
31.92	794.734
31.96	758.61
32	722.486
32.04	758.61
32.08	848.921
32.12	740.548
32.16	1011.48
32.2	975.356
32.24	957.294
32.28	1155.98
32.32	1155.98
32.36	1463.03
32.4	1282.41
32.44	1155.98
32.48	1047.6
32.52	1029.54
32.56	1083.73
32.6	1444.97
32.64	1806.21
32.68	1679.78
32.72	1553.34
32.76	1282.41
32.8	1390.79
32.84	993.418
32.88	957.294
32.92	1029.54
32.96	1083.73
33	812.797
33.04	848.921
33.08	885.045
33.12	830.859
33.16	614.113
33.2	668.299
33.24	776.672
33.28	848.921
33.32	740.548
33.36	577.989
33.4	885.045
33.44	704.424
33.48	632.175
33.52	776.672
33.56	903.107
33.6	1011.48
33.64	885.045
33.68	921.169
33.72	885.045
33.76	1083.73
33.8	885.045
33.84	614.113
33.88	614.113
33.92	794.734
33.96	921.169
34	939.232
34.04	1047.6
34.08	939.232
34.12	722.486
34.16	650.237
34.2	704.424
34.24	632.175
34.28	722.486
34.32	577.989
34.36	848.921
34.4	740.548
34.44	830.859
34.48	776.672
34.52	812.797
34.56	722.486
34.6	577.989
34.64	722.486
34.68	686.362
34.72	722.486
34.76	614.113
34.8	776.672
34.84	704.424
34.88	957.294
34.92	758.61
34.96	632.175
35	632.175
35.04	704.424
35.08	559.927
35.12	704.424
35.16	740.548
35.2	866.983
35.24	415.429
35.28	577.989
35.32	758.61
35.36	668.299
35.4	686.362
35.44	343.181
35.48	758.61
35.52	704.424
35.56	758.61
35.6	397.367
35.64	541.864
35.68	686.362
35.72	939.232
35.76	758.61
35.8	848.921
35.84	722.486
35.88	758.61
35.92	650.237
35.96	830.859
36	885.045
36.04	559.927
36.08	668.299
36.12	559.927
36.16	632.175
36.2	487.678
36.24	686.362
36.28	704.424
36.32	957.294
36.36	1101.79
36.4	668.299
36.44	614.113
36.48	577.989
36.52	704.424
36.56	812.797
36.6	903.107
36.64	957.294
36.68	1535.28
36.72	1589.47
36.76	1101.79
36.8	1137.92
36.84	1011.48
36.88	1029.54
36.92	1083.73
36.96	1318.54
37	1047.6
37.04	975.356
37.08	776.672
37.12	722.486
37.16	866.983
37.2	794.734
37.24	632.175
37.28	433.492
37.32	686.362
37.36	704.424
37.4	830.859
37.44	523.802
37.48	541.864
37.52	650.237
37.56	866.983
37.6	397.367
37.64	559.927
37.68	650.237
37.72	794.734
37.76	830.859
37.8	1083.73
37.84	1065.67
37.88	885.045
37.92	614.113
37.96	794.734
38	722.486
38.04	451.554
38.08	596.051
38.12	921.169
38.16	722.486
38.2	1029.54
38.24	830.859
38.28	885.045
38.32	650.237
38.36	523.802
38.4	577.989
38.44	632.175
38.48	433.492
38.52	415.429
38.56	541.864
38.6	632.175
38.64	559.927
38.68	812.797
38.72	758.61
38.76	668.299
38.8	812.797
38.84	758.61
38.88	776.672
38.92	794.734
38.96	903.107
39	939.232
39.04	758.61
39.08	1228.23
39.12	1444.97
39.16	1625.59
39.2	1481.1
39.24	1011.48
39.28	903.107
39.32	830.859
39.36	740.548
39.4	704.424
39.44	379.305
39.48	505.74
39.52	523.802
39.56	451.554
39.6	505.74
39.64	614.113
39.68	523.802
39.72	614.113
39.76	559.927
39.8	559.927
39.84	451.554
39.88	541.864
39.92	523.802
39.96	704.424
40	668.299
40.04	704.424
40.08	523.802
40.12	614.113
40.16	523.802
40.2	415.429
40.24	505.74
40.28	325.119
40.32	451.554
40.36	307.056
40.4	433.492
40.44	415.429
40.48	343.181
40.52	433.492
40.56	812.797
40.6	523.802
40.64	596.051
40.68	487.678
40.72	596.051
40.76	451.554
40.8	288.994
40.84	577.989
40.88	415.429
40.92	632.175
40.96	596.051
41	469.616
41.04	541.864
41.08	487.678
41.12	433.492
41.16	379.305
41.2	704.424
41.24	776.672
41.28	668.299
41.32	848.921
41.36	776.672
41.4	740.548
41.44	776.672
41.48	668.299
41.52	921.169
41.56	650.237
41.6	722.486
41.64	614.113
41.68	523.802
41.72	541.864
41.76	632.175
41.8	722.486
41.84	848.921
41.88	505.74
41.92	451.554
41.96	505.74
42	361.243
42.04	415.429
42.08	451.554
42.12	379.305
42.16	523.802
42.2	451.554
42.24	469.616
42.28	433.492
42.32	469.616
42.36	469.616
42.4	487.678
42.44	722.486
42.48	559.927
42.52	596.051
42.56	451.554
42.6	577.989
42.64	541.864
42.68	614.113
42.72	505.74
42.76	921.169
42.8	794.734
42.84	722.486
42.88	523.802
42.92	668.299
42.96	505.74
43	596.051
43.04	559.927
43.08	451.554
43.12	451.554
43.16	270.932
43.2	433.492
43.24	433.492
43.28	451.554
43.32	487.678
43.36	397.367
43.4	361.243
43.44	343.181
43.48	397.367
43.52	487.678
43.56	361.243
43.6	614.113
43.64	559.927
43.68	559.927
43.72	523.802
43.76	469.616
43.8	451.554
43.84	397.367
43.88	397.367
43.92	541.864
43.96	541.864
44	288.994
44.04	469.616
44.08	451.554
44.12	415.429
44.16	325.119
44.2	433.492
44.24	596.051
44.28	397.367
44.32	668.299
44.36	505.74
44.4	415.429
44.44	415.429
44.48	397.367
44.52	451.554
44.56	397.367
44.6	469.616
44.64	614.113
44.68	433.492
44.72	559.927
44.76	469.616
44.8	505.74
44.84	415.429
44.88	451.554
44.92	632.175
44.96	469.616
45	361.243
45.04	451.554
45.08	505.74
45.12	433.492
45.16	415.429
45.2	487.678
45.24	704.424
45.28	343.181
45.32	523.802
45.36	487.678
45.4	343.181
45.44	451.554
45.48	379.305
45.52	487.678
45.56	343.181
45.6	270.932
45.64	433.492
45.68	397.367
45.72	343.181
45.76	361.243
45.8	343.181
45.84	379.305
45.88	270.932
45.92	234.808
45.96	559.927
46	397.367
46.04	361.243
46.08	361.243
46.12	379.305
46.16	650.237
46.2	541.864
46.24	650.237
46.28	559.927
46.32	632.175
46.36	487.678
46.4	379.305
46.44	252.87
46.48	415.429
46.52	343.181
46.56	415.429
46.6	415.429
46.64	270.932
46.68	451.554
46.72	379.305
46.76	343.181
46.8	307.056
46.84	343.181
46.88	577.989
46.92	523.802
46.96	505.74
47	379.305
47.04	541.864
47.08	722.486
47.12	541.864
47.16	451.554
47.2	523.802
47.24	415.429
47.28	650.237
47.32	343.181
47.36	397.367
47.4	433.492
47.44	415.429
47.48	523.802
47.52	343.181
47.56	541.864
47.6	288.994
47.64	451.554
47.68	577.989
47.72	361.243
47.76	505.74
47.8	415.429
47.84	325.119
47.88	469.616
47.92	270.932
47.96	487.678
48	307.056
48.04	415.429
48.08	379.305
48.12	451.554
48.16	451.554
48.2	415.429
48.24	559.927
48.28	487.678
48.32	505.74
48.36	415.429
48.4	288.994
48.44	325.119
48.48	343.181
48.52	325.119
48.56	325.119
48.6	397.367
48.64	487.678
48.68	379.305
48.72	343.181
48.76	325.119
48.8	234.808
48.84	307.056
48.88	577.989
48.92	307.056
48.96	307.056
49	270.932
49.04	361.243
49.08	325.119
49.12	433.492
49.16	252.87
49.2	343.181
49.24	523.802
49.28	361.243
49.32	415.429
49.36	325.119
49.4	252.87
49.44	397.367
49.48	505.74
49.52	451.554
49.56	361.243
49.6	379.305
49.64	343.181
49.68	397.367
49.72	288.994
49.76	397.367
49.8	397.367
49.84	415.429
49.88	415.429
49.92	559.927
49.96	288.994
50	252.87
50.04	433.492
50.08	307.056
50.12	361.243
50.16	343.181
50.2	451.554
50.24	361.243
50.28	614.113
50.32	451.554
50.36	487.678
50.4	505.74
50.44	433.492
50.48	487.678
50.52	541.864
50.56	469.616
50.6	469.616
50.64	487.678
50.68	343.181
50.72	325.119
50.76	307.056
50.8	379.305
50.84	288.994
50.88	451.554
50.92	216.746
50.96	343.181
51	288.994
51.04	361.243
51.08	234.808
51.12	325.119
51.16	162.559
51.2	361.243
51.24	379.305
51.28	379.305
51.32	270.932
51.36	505.74
51.4	379.305
51.44	523.802
51.48	307.056
51.52	252.87
51.56	288.994
51.6	288.994
51.64	270.932
51.68	469.616
51.72	433.492
51.76	433.492
51.8	234.808
51.84	469.616
51.88	469.616
51.92	415.429
51.96	505.74
52	379.305
52.04	487.678
52.08	451.554
52.12	325.119
52.16	325.119
52.2	307.056
52.24	361.243
52.28	325.119
52.32	270.932
52.36	325.119
52.4	415.429
52.44	288.994
52.48	307.056
52.52	252.87
52.56	469.616
52.6	343.181
52.64	252.87
52.68	541.864
52.72	451.554
52.76	307.056
52.8	379.305
52.84	252.87
52.88	379.305
52.92	343.181
52.96	433.492
53	433.492
53.04	216.746
53.08	252.87
53.12	469.616
53.16	361.243
53.2	252.87
53.24	433.492
53.28	288.994
53.32	361.243
53.36	361.243
53.4	361.243
53.44	469.616
53.48	343.181
53.52	216.746
53.56	198.684
53.6	234.808
53.64	234.808
53.68	198.684
53.72	288.994
53.76	397.367
53.8	288.994
53.84	234.808
53.88	307.056
53.92	288.994
53.96	361.243
54	397.367
54.04	397.367
54.08	325.119
54.12	379.305
54.16	433.492
54.2	541.864
54.24	577.989
54.28	415.429
54.32	451.554
54.36	523.802
54.4	559.927
54.44	397.367
54.48	415.429
54.52	541.864
54.56	307.056
54.6	361.243
54.64	361.243
54.68	361.243
54.72	252.87
54.76	451.554
54.8	361.243
54.84	325.119
54.88	325.119
54.92	451.554
54.96	379.305
55	433.492
55.04	343.181
55.08	325.119
55.12	270.932
55.16	288.994
55.2	180.621
55.24	288.994
55.28	288.994
55.32	234.808
55.36	162.559
55.4	325.119
55.44	307.056
55.48	252.87
55.52	180.621
55.56	270.932
55.6	288.994
55.64	343.181
55.68	379.305
55.72	307.056
55.76	397.367
55.8	397.367
55.84	379.305
55.88	325.119
55.92	451.554
55.96	343.181
56	288.994
56.04	180.621
56.08	361.243
56.12	216.746
56.16	270.932
56.2	343.181
56.24	252.87
56.28	270.932
56.32	397.367
56.36	288.994
56.4	343.181
56.44	361.243
56.48	379.305
56.52	559.927
56.56	379.305
56.6	433.492
56.64	379.305
56.68	270.932
56.72	397.367
56.76	325.119
56.8	559.927
56.84	451.554
56.88	343.181
56.92	216.746
56.96	270.932
57	198.684
57.04	307.056
57.08	162.559
57.12	307.056
57.16	234.808
57.2	234.808
57.24	198.684
57.28	234.808
57.32	234.808
57.36	307.056
57.4	198.684
57.44	288.994
57.48	252.87
57.52	234.808
57.56	307.056
57.6	325.119
57.64	325.119
57.68	325.119
57.72	270.932
57.76	325.119
57.8	252.87
57.84	343.181
57.88	216.746
57.92	234.808
57.96	288.994
58	343.181
58.04	234.808
58.08	270.932
58.12	234.808
58.16	234.808
58.2	270.932
58.24	325.119
58.28	325.119
58.32	307.056
58.36	270.932
58.4	270.932
58.44	180.621
58.48	288.994
58.52	361.243
58.56	397.367
58.6	307.056
58.64	252.87
58.68	307.056
58.72	180.621
58.76	198.684
58.8	307.056
58.84	270.932
58.88	144.497
58.92	523.802
58.96	270.932
59	234.808
59.04	270.932
59.08	343.181
59.12	451.554
59.16	288.994
59.2	325.119
59.24	361.243
59.28	397.367
59.32	433.492
59.36	415.429
59.4	288.994
59.44	379.305
59.48	343.181
59.52	325.119
59.56	379.305
59.6	433.492
59.64	541.864
59.68	288.994
59.72	505.74
59.76	487.678
59.8	379.305
59.84	343.181
59.88	379.305
59.92	307.056
59.96	325.119
60	234.808