File: program/database/experiments/MU/xrd/1102/parallel/liftfsi/xrd/50.TXT
Sample
Comments
Filename	C:\Data\西出研\梅木\20211102オペ\LiFTFSI_01_0001_0050-0_C_2θ.raw
Goniometer	SmartLab(In-plane)
Attachment	標準Zステージ
Monochromater	None
X	0
Y	0
Z	0.00908
ScanningMode	2Theta
ScanningType	Continuos Scanning
X-Ray	40kV/30mA
入射スリット	0.300mm
受光スリット1	20.000mm
受光スリット2	20.000mm
None
Start	5
Stop	60
Step	0.02
Speed	21.6746
Theta	0
5	2998.32
5.04	3106.69
5.08	3016.38
5.12	3251.19
5.16	3052.5
5.2	3395.68
5.24	3811.11
5.28	3485.99
5.32	3323.44
5.36	3178.94
5.4	3160.88
5.44	3160.88
5.48	3287.31
5.52	3215.06
5.56	3522.12
5.6	3395.68
5.64	3449.87
5.68	3467.93
5.72	3449.87
5.76	3413.75
5.8	3124.75
5.84	3305.37
5.88	3106.69
5.92	3197
5.96	3576.31
6	3160.88
6.04	3034.44
6.08	3106.69
6.12	2889.94
6.16	3576.31
6.2	2962.19
6.24	3449.87
6.28	3160.88
6.32	3215.06
6.36	3485.99
6.4	2871.88
6.44	3034.44
6.48	3287.31
6.52	2709.32
6.56	3305.37
6.6	3034.44
6.64	3142.81
6.68	3287.31
6.72	3341.5
6.76	2691.26
6.8	3034.44
6.84	3142.81
6.88	3160.88
6.92	2817.69
6.96	3377.62
7	2871.88
7.04	3160.88
7.08	2745.45
7.12	3197
7.16	2709.32
7.2	3016.38
7.24	3160.88
7.28	3215.06
7.32	3395.68
7.36	3178.94
7.4	2817.69
7.44	3305.37
7.48	2817.69
7.52	3287.31
7.56	2962.19
7.6	3215.06
7.64	2835.76
7.68	3088.63
7.72	3160.88
7.76	2655.14
7.8	3287.31
7.84	3142.81
7.88	3160.88
7.92	3215.06
7.96	2691.26
8	2853.82
8.04	2600.95
8.08	3052.5
8.12	2781.57
8.16	3233.12
8.2	2655.14
8.24	3251.19
8.28	2871.88
8.32	3160.88
8.36	2908.01
8.4	2709.32
8.44	2998.32
8.48	2908.01
8.52	2871.88
8.56	2889.94
8.6	3034.44
8.64	3142.81
8.68	2962.19
8.72	2908.01
8.76	3684.68
8.8	2998.32
8.84	3088.63
8.88	2456.45
8.92	3178.94
8.96	2745.45
9	3774.99
9.04	2853.82
9.08	2926.07
9.12	2709.32
9.16	3215.06
9.2	3251.19
9.24	2962.19
9.28	3449.87
9.32	3178.94
9.36	2998.32
9.4	3395.68
9.44	3323.44
9.48	2871.88
9.52	2853.82
9.56	3034.44
9.6	2817.69
9.64	2908.01
9.68	3070.56
9.72	3160.88
9.76	2926.07
9.8	2998.32
9.84	2871.88
9.88	2889.94
9.92	2853.82
9.96	2817.69
10	2817.69
10.04	2817.69
10.08	2962.19
10.12	2908.01
10.16	2619.01
10.2	2582.89
10.24	2871.88
10.28	2709.32
10.32	3215.06
10.36	2926.07
10.4	3088.63
10.44	3413.75
10.48	2908.01
10.52	3124.75
10.56	2582.89
10.6	2619.01
10.64	2691.26
10.68	2980.25
10.72	2817.69
10.76	2564.82
10.8	2709.32
10.84	2962.19
10.88	2727.38
10.92	2871.88
10.96	2348.08
11	2980.25
11.04	2619.01
11.08	2673.2
11.12	2998.32
11.16	2655.14
11.2	2817.69
11.24	2853.82
11.28	2889.94
11.32	2745.45
11.36	2691.26
11.4	2745.45
11.44	2799.63
11.48	2727.38
11.52	2293.89
11.56	2474.51
11.6	2330.02
11.64	2799.63
11.68	2528.7
11.72	2889.94
11.76	2564.82
11.8	3016.38
11.84	3052.5
11.88	3088.63
11.92	2438.39
11.96	2709.32
12	2835.76
12.04	2402.27
12.08	2619.01
12.12	2889.94
12.16	2745.45
12.2	2619.01
12.24	2438.39
12.28	2619.01
12.32	2727.38
12.36	2510.64
12.4	2691.26
12.44	2962.19
12.48	3323.44
12.52	3793.05
12.56	3774.99
12.6	3233.12
12.64	2600.95
12.68	2619.01
12.72	2889.94
12.76	2510.64
12.8	2402.27
12.84	2799.63
12.88	2528.7
12.92	2546.76
12.96	2456.45
13	2257.77
13.04	2727.38
13.08	2510.64
13.12	2492.58
13.16	2691.26
13.2	2835.76
13.24	2474.51
13.28	2528.7
13.32	2673.2
13.36	2456.45
13.4	2384.2
13.44	2366.14
13.48	2492.58
13.52	2438.39
13.56	2691.26
13.6	2311.95
13.64	2077.15
13.68	2438.39
13.72	2293.89
13.76	2275.83
13.8	2167.46
13.84	2438.39
13.88	2384.2
13.92	2763.51
13.96	2293.89
14	2077.15
14.04	2745.45
14.08	2456.45
14.12	2167.46
14.16	2420.33
14.2	2348.08
14.24	2709.32
14.28	2673.2
14.32	2564.82
14.36	2510.64
14.4	2474.51
14.44	2438.39
14.48	2077.15
14.52	2564.82
14.56	2257.77
14.6	2600.95
14.64	2059.08
14.68	2456.45
14.72	2366.14
14.76	2691.26
14.8	2402.27
14.84	2474.51
14.88	2438.39
14.92	2546.76
14.96	2889.94
15	2799.63
15.04	2311.95
15.08	2853.82
15.12	2582.89
15.16	2474.51
15.2	2239.71
15.24	2203.58
15.28	2384.2
15.32	2510.64
15.36	2293.89
15.4	2185.52
15.44	2185.52
15.48	2673.2
15.52	2348.08
15.56	2239.71
15.6	2059.08
15.64	2131.33
15.68	2456.45
15.72	2402.27
15.76	2438.39
15.8	2149.4
15.84	2619.01
15.88	2311.95
15.92	2420.33
15.96	2582.89
16	2655.14
16.04	3359.56
16.08	4063.98
16.12	4027.86
16.16	3504.06
16.2	2727.38
16.24	2330.02
16.28	2203.58
16.32	2185.52
16.36	2293.89
16.4	2077.15
16.44	2149.4
16.48	2257.77
16.52	2275.83
16.56	2203.58
16.6	1914.59
16.64	2185.52
16.68	2059.08
16.72	2167.46
16.76	2203.58
16.8	1950.71
16.84	2239.71
16.88	2348.08
16.92	1950.71
16.96	2022.96
17	1824.28
17.04	2131.33
17.08	2185.52
17.12	2366.14
17.16	2167.46
17.2	1950.71
17.24	2311.95
17.28	2348.08
17.32	2528.7
17.36	2095.21
17.4	2131.33
17.44	2203.58
17.48	2004.9
17.52	2257.77
17.56	2348.08
17.6	1860.4
17.64	2041.02
17.68	2311.95
17.72	2257.77
17.76	2438.39
17.8	2022.96
17.84	2456.45
17.88	2763.51
17.92	3720.8
17.96	5490.89
18	7459.67
18.04	6881.68
18.08	5382.52
18.12	3522.12
18.16	2366.14
18.2	2348.08
18.24	2131.33
18.28	2113.27
18.32	2275.83
18.36	1625.59
18.4	2456.45
18.44	2546.76
18.48	2835.76
18.52	3955.61
18.56	5274.15
18.6	6412.06
18.64	4316.85
18.68	3106.69
18.72	2221.64
18.76	1896.53
18.8	2275.83
18.84	2059.08
18.88	2293.89
18.92	2420.33
18.96	2059.08
19	1842.34
19.04	1932.65
19.08	2221.64
19.12	2004.9
19.16	2889.94
19.2	3576.31
19.24	4533.6
19.28	6177.25
19.32	5256.08
19.36	3395.68
19.4	2528.7
19.44	2239.71
19.48	1715.9
19.52	1914.59
19.56	1842.34
19.6	1824.28
19.64	1932.65
19.68	2059.08
19.72	2113.27
19.76	2185.52
19.8	1878.46
19.84	2059.08
19.88	2203.58
19.92	1896.53
19.96	2203.58
20	2077.15
20.04	2781.57
20.08	2564.82
20.12	2763.51
20.16	2203.58
20.2	1986.84
20.24	1986.84
20.28	1950.71
20.32	1896.53
20.36	1932.65
20.4	1535.28
20.44	1697.84
20.48	1824.28
20.52	1589.47
20.56	2059.08
20.6	2022.96
20.64	2004.9
20.68	1824.28
20.72	1643.66
20.76	1661.72
20.8	1968.77
20.84	1679.78
20.88	1788.15
20.92	2582.89
20.96	2763.51
21	3720.8
21.04	6285.63
21.08	7893.16
21.12	7748.66
21.16	4786.47
21.2	2311.95
21.24	2330.02
21.28	1788.15
21.32	1625.59
21.36	2022.96
21.4	1752.03
21.44	1986.84
21.48	1788.15
21.52	2095.21
21.56	1806.21
21.6	1914.59
21.64	1878.46
21.68	2022.96
21.72	1896.53
21.76	2041.02
21.8	2095.21
21.84	2095.21
21.88	1842.34
21.92	1878.46
21.96	1950.71
22	1950.71
22.04	1752.03
22.08	1463.03
22.12	1715.9
22.16	1697.84
22.2	1733.97
22.24	1643.66
22.28	1914.59
22.32	1463.03
22.36	1463.03
22.4	1625.59
22.44	1625.59
22.48	1661.72
22.52	1806.21
22.56	1806.21
22.6	1571.41
22.64	1896.53
22.68	1481.1
22.72	2022.96
22.76	1788.15
22.8	2004.9
22.84	1679.78
22.88	1679.78
22.92	1697.84
22.96	1679.78
23	1625.59
23.04	1896.53
23.08	1535.28
23.12	1625.59
23.16	1589.47
23.2	2221.64
23.24	1878.46
23.28	1679.78
23.32	1661.72
23.36	2293.89
23.4	2095.21
23.44	2203.58
23.48	1770.09
23.52	1950.71
23.56	1842.34
23.6	1444.97
23.64	1517.22
23.68	1643.66
23.72	1842.34
23.76	1336.6
23.8	1444.97
23.84	1444.97
23.88	1643.66
23.92	1192.1
23.96	1625.59
24	1481.1
24.04	1643.66
24.08	1264.35
24.12	1643.66
24.16	1155.98
24.2	1535.28
24.24	1625.59
24.28	1517.22
24.32	1535.28
24.36	1210.16
24.4	1318.54
24.44	1192.1
24.48	1390.79
24.52	1499.16
24.56	1174.04
24.6	1408.85
24.64	1517.22
24.68	1336.6
24.72	1282.41
24.76	1426.91
24.8	1300.47
24.84	1228.23
24.88	1029.54
24.92	1264.35
24.96	1607.53
25	1282.41
25.04	1372.72
25.08	1463.03
25.12	1481.1
25.16	1571.41
25.2	1444.97
25.24	1860.4
25.28	1806.21
25.32	1697.84
25.36	2239.71
25.4	2727.38
25.44	2600.95
25.48	2293.89
25.52	1968.77
25.56	2564.82
25.6	3233.12
25.64	5310.27
25.68	6737.18
25.72	6990.05
25.76	5599.27
25.8	3413.75
25.84	1824.28
25.88	1390.79
25.92	1481.1
25.96	1517.22
26	1571.41
26.04	1083.73
26.08	1390.79
26.12	1282.41
26.16	1137.92
26.2	1589.47
26.24	1499.16
26.28	2113.27
26.32	2438.39
26.36	3070.56
26.4	1968.77
26.44	1842.34
26.48	1625.59
26.52	1607.53
26.56	1408.85
26.6	1155.98
26.64	2113.27
26.68	1878.46
26.72	1733.97
26.76	1444.97
26.8	1282.41
26.84	1336.6
26.88	1246.29
26.92	866.983
26.96	939.232
27	939.232
27.04	975.356
27.08	1264.35
27.12	1101.79
27.16	1264.35
27.2	1047.6
27.24	1372.72
27.28	1390.79
27.32	1192.1
27.36	921.169
27.4	1842.34
27.44	2619.01
27.48	4208.48
27.52	5400.58
27.56	5942.45
27.6	4352.98
27.64	2908.01
27.68	1463.03
27.72	1553.34
27.76	1372.72
27.8	1210.16
27.84	1119.85
27.88	1444.97
27.92	1264.35
27.96	1499.16
28	1354.66
28.04	1300.47
28.08	1354.66
28.12	1264.35
28.16	1264.35
28.2	1228.23
28.24	1155.98
28.28	975.356
28.32	1155.98
28.36	830.859
28.4	1228.23
28.44	921.169
28.48	1174.04
28.52	993.418
28.56	1047.6
28.6	957.294
28.64	1119.85
28.68	1011.48
28.72	1119.85
28.76	993.418
28.8	1029.54
28.84	1282.41
28.88	1101.79
28.92	1101.79
28.96	848.921
29	903.107
29.04	1011.48
29.08	903.107
29.12	830.859
29.16	812.797
29.2	885.045
29.24	704.424
29.28	1101.79
29.32	776.672
29.36	776.672
29.4	830.859
29.44	812.797
29.48	1011.48
29.52	794.734
29.56	1011.48
29.6	939.232
29.64	1011.48
29.68	975.356
29.72	776.672
29.76	866.983
29.8	812.797
29.84	866.983
29.88	975.356
29.92	885.045
29.96	1282.41
30	1210.16
30.04	1155.98
30.08	1408.85
30.12	1047.6
30.16	812.797
30.2	939.232
30.24	812.797
30.28	921.169
30.32	921.169
30.36	939.232
30.4	812.797
30.44	1011.48
30.48	1481.1
30.52	1390.79
30.56	1463.03
30.6	1065.67
30.64	1155.98
30.68	1119.85
30.72	866.983
30.76	758.61
30.8	957.294
30.84	866.983
30.88	1174.04
30.92	1065.67
30.96	885.045
31	957.294
31.04	740.548
31.08	903.107
31.12	939.232
31.16	650.237
31.2	740.548
31.24	794.734
31.28	722.486
31.32	866.983
31.36	957.294
31.4	1137.92
31.44	1101.79
31.48	1390.79
31.52	1011.48
31.56	1101.79
31.6	866.983
31.64	921.169
31.68	740.548
31.72	650.237
31.76	686.362
31.8	650.237
31.84	776.672
31.88	758.61
31.92	1011.48
31.96	704.424
32	632.175
32.04	866.983
32.08	505.74
32.12	704.424
32.16	614.113
32.2	758.61
32.24	704.424
32.28	830.859
32.32	650.237
32.36	1065.67
32.4	1264.35
32.44	1517.22
32.48	1679.78
32.52	1336.6
32.56	1318.54
32.6	1029.54
32.64	830.859
32.68	650.237
32.72	866.983
32.76	668.299
32.8	957.294
32.84	1589.47
32.88	1914.59
32.92	2149.4
32.96	1842.34
33	1390.79
33.04	1137.92
33.08	1065.67
33.12	1174.04
33.16	1083.73
33.2	1336.6
33.24	957.294
33.28	758.61
33.32	939.232
33.36	686.362
33.4	523.802
33.44	632.175
33.48	758.61
33.52	794.734
33.56	614.113
33.6	794.734
33.64	686.362
33.68	740.548
33.72	848.921
33.76	740.548
33.8	830.859
33.84	903.107
33.88	722.486
33.92	885.045
33.96	903.107
34	885.045
34.04	758.61
34.08	866.983
34.12	866.983
34.16	939.232
34.2	614.113
34.24	523.802
34.28	812.797
34.32	758.61
34.36	614.113
34.4	614.113
34.44	577.989
34.48	433.492
34.52	830.859
34.56	812.797
34.6	505.74
34.64	704.424
34.68	776.672
34.72	722.486
34.76	686.362
34.8	668.299
34.84	632.175
34.88	794.734
34.92	740.548
34.96	939.232
35	794.734
35.04	758.61
35.08	812.797
35.12	1065.67
35.16	830.859
35.2	559.927
35.24	487.678
35.28	704.424
35.32	776.672
35.36	776.672
35.4	415.429
35.44	469.616
35.48	632.175
35.52	523.802
35.56	487.678
35.6	541.864
35.64	577.989
35.68	686.362
35.72	632.175
35.76	596.051
35.8	614.113
35.84	704.424
35.88	740.548
35.92	794.734
35.96	812.797
36	704.424
36.04	921.169
36.08	776.672
36.12	830.859
36.16	758.61
36.2	722.486
36.24	776.672
36.28	614.113
36.32	487.678
36.36	686.362
36.4	559.927
36.44	614.113
36.48	830.859
36.52	704.424
36.56	776.672
36.6	830.859
36.64	704.424
36.68	885.045
36.72	559.927
36.76	885.045
36.8	1174.04
36.84	1228.23
36.88	1210.16
36.92	1047.6
36.96	1101.79
37	632.175
37.04	541.864
37.08	866.983
37.12	903.107
37.16	1174.04
37.2	1390.79
37.24	1860.4
37.28	1264.35
37.32	1047.6
37.36	794.734
37.4	577.989
37.44	650.237
37.48	830.859
37.52	577.989
37.56	668.299
37.6	704.424
37.64	650.237
37.68	830.859
37.72	487.678
37.76	812.797
37.8	433.492
37.84	758.61
37.88	794.734
37.92	975.356
37.96	885.045
38	1101.79
38.04	686.362
38.08	866.983
38.12	758.61
38.16	469.616
38.2	1047.6
38.24	1155.98
38.28	1210.16
38.32	1155.98
38.36	776.672
38.4	794.734
38.44	632.175
38.48	469.616
38.52	541.864
38.56	487.678
38.6	523.802
38.64	487.678
38.68	614.113
38.72	596.051
38.76	614.113
38.8	686.362
38.84	668.299
38.88	794.734
38.92	577.989
38.96	704.424
39	559.927
39.04	686.362
39.08	993.418
39.12	993.418
39.16	794.734
39.2	1300.47
39.24	1553.34
39.28	1589.47
39.32	1661.72
39.36	1715.9
39.4	1354.66
39.44	866.983
39.48	776.672
39.52	668.299
39.56	505.74
39.6	686.362
39.64	541.864
39.68	577.989
39.72	487.678
39.76	505.74
39.8	559.927
39.84	541.864
39.88	758.61
39.92	686.362
39.96	722.486
40	704.424
40.04	722.486
40.08	686.362
40.12	686.362
40.16	776.672
40.2	668.299
40.24	559.927
40.28	487.678
40.32	505.74
40.36	596.051
40.4	252.87
40.44	487.678
40.48	523.802
40.52	433.492
40.56	487.678
40.6	451.554
40.64	397.367
40.68	505.74
40.72	614.113
40.76	541.864
40.8	505.74
40.84	722.486
40.88	577.989
40.92	343.181
40.96	415.429
41	614.113
41.04	433.492
41.08	469.616
41.12	433.492
41.16	415.429
41.2	288.994
41.24	325.119
41.28	397.367
41.32	523.802
41.36	487.678
41.4	505.74
41.44	577.989
41.48	523.802
41.52	523.802
41.56	794.734
41.6	650.237
41.64	1065.67
41.68	1192.1
41.72	1210.16
41.76	885.045
41.8	848.921
41.84	704.424
41.88	848.921
41.92	469.616
41.96	451.554
42	632.175
42.04	541.864
42.08	577.989
42.12	523.802
42.16	596.051
42.2	451.554
42.24	415.429
42.28	559.927
42.32	559.927
42.36	433.492
42.4	559.927
42.44	397.367
42.48	270.932
42.52	379.305
42.56	614.113
42.6	379.305
42.64	487.678
42.68	596.051
42.72	505.74
42.76	343.181
42.8	541.864
42.84	577.989
42.88	740.548
42.92	993.418
42.96	704.424
43	577.989
43.04	577.989
43.08	686.362
43.12	632.175
43.16	523.802
43.2	523.802
43.24	541.864
43.28	469.616
43.32	740.548
43.36	433.492
43.4	379.305
43.44	523.802
43.48	361.243
43.52	523.802
43.56	397.367
43.6	379.305
43.64	343.181
43.68	415.429
43.72	541.864
43.76	541.864
43.8	596.051
43.84	541.864
43.88	469.616
43.92	577.989
43.96	451.554
44	451.554
44.04	433.492
44.08	415.429
44.12	415.429
44.16	343.181
44.2	523.802
44.24	650.237
44.28	469.616
44.32	397.367
44.36	596.051
44.4	632.175
44.44	505.74
44.48	451.554
44.52	541.864
44.56	397.367
44.6	451.554
44.64	379.305
44.68	451.554
44.72	469.616
44.76	433.492
44.8	541.864
44.84	614.113
44.88	559.927
44.92	614.113
44.96	577.989
45	433.492
45.04	632.175
45.08	379.305
45.12	234.808
45.16	379.305
45.2	415.429
45.24	288.994
45.28	288.994
45.32	433.492
45.36	270.932
45.4	451.554
45.44	343.181
45.48	415.429
45.52	343.181
45.56	451.554
45.6	379.305
45.64	469.616
45.68	397.367
45.72	415.429
45.76	415.429
45.8	270.932
45.84	451.554
45.88	343.181
45.92	379.305
45.96	307.056
46	379.305
46.04	361.243
46.08	415.429
46.12	216.746
46.16	307.056
46.2	288.994
46.24	252.87
46.28	451.554
46.32	325.119
46.36	577.989
46.4	632.175
46.44	487.678
46.48	614.113
46.52	577.989
46.56	523.802
46.6	451.554
46.64	433.492
46.68	397.367
46.72	361.243
46.76	469.616
46.8	433.492
46.84	379.305
46.88	325.119
46.92	252.87
46.96	469.616
47	451.554
47.04	433.492
47.08	433.492
47.12	415.429
47.16	415.429
47.2	379.305
47.24	596.051
47.28	632.175
47.32	559.927
47.36	469.616
47.4	469.616
47.44	415.429
47.48	596.051
47.52	541.864
47.56	343.181
47.6	343.181
47.64	577.989
47.68	433.492
47.72	397.367
47.76	469.616
47.8	614.113
47.84	812.797
47.88	632.175
47.92	632.175
47.96	469.616
48	433.492
48.04	433.492
48.08	361.243
48.12	469.616
48.16	270.932
48.2	397.367
48.24	379.305
48.28	343.181
48.32	288.994
48.36	288.994
48.4	397.367
48.44	325.119
48.48	343.181
48.52	397.367
48.56	523.802
48.6	577.989
48.64	614.113
48.68	397.367
48.72	288.994
48.76	487.678
48.8	397.367
48.84	415.429
48.88	397.367
48.92	307.056
48.96	252.87
49	343.181
49.04	379.305
49.08	270.932
49.12	397.367
49.16	270.932
49.2	288.994
49.24	270.932
49.28	325.119
49.32	415.429
49.36	487.678
49.4	307.056
49.44	216.746
49.48	270.932
49.52	343.181
49.56	325.119
49.6	325.119
49.64	343.181
49.68	379.305
49.72	415.429
49.76	523.802
49.8	397.367
49.84	451.554
49.88	433.492
49.92	415.429
49.96	433.492
50	487.678
50.04	397.367
50.08	379.305
50.12	433.492
50.16	397.367
50.2	397.367
50.24	288.994
50.28	397.367
50.32	325.119
50.36	379.305
50.4	234.808
50.44	469.616
50.48	270.932
50.52	325.119
50.56	577.989
50.6	361.243
50.64	198.684
50.68	397.367
50.72	451.554
50.76	487.678
50.8	415.429
50.84	523.802
50.88	559.927
50.92	469.616
50.96	451.554
51	559.927
51.04	325.119
51.08	505.74
51.12	415.429
51.16	361.243
51.2	433.492
51.24	307.056
51.28	433.492
51.32	415.429
51.36	307.056
51.4	307.056
51.44	252.87
51.48	307.056
51.52	361.243
51.56	343.181
51.6	343.181
51.64	325.119
51.68	451.554
51.72	252.87
51.76	307.056
51.8	415.429
51.84	397.367
51.88	379.305
51.92	379.305
51.96	415.429
52	307.056
52.04	361.243
52.08	433.492
52.12	505.74
52.16	469.616
52.2	487.678
52.24	415.429
52.28	541.864
52.32	343.181
52.36	397.367
52.4	379.305
52.44	198.684
52.48	234.808
52.52	252.87
52.56	252.87
52.6	288.994
52.64	343.181
52.68	361.243
52.72	433.492
52.76	252.87
52.8	252.87
52.84	451.554
52.88	415.429
52.92	523.802
52.96	379.305
53	415.429
53.04	288.994
53.08	325.119
53.12	325.119
53.16	270.932
53.2	234.808
53.24	307.056
53.28	325.119
53.32	198.684
53.36	343.181
53.4	451.554
53.44	433.492
53.48	361.243
53.52	451.554
53.56	325.119
53.6	361.243
53.64	541.864
53.68	288.994
53.72	415.429
53.76	361.243
53.8	361.243
53.84	234.808
53.88	415.429
53.92	451.554
53.96	343.181
54	325.119
54.04	361.243
54.08	270.932
54.12	198.684
54.16	270.932
54.2	325.119
54.24	288.994
54.28	343.181
54.32	288.994
54.36	270.932
54.4	361.243
54.44	252.87
54.48	415.429
54.52	415.429
54.56	469.616
54.6	704.424
54.64	686.362
54.68	848.921
54.72	650.237
54.76	523.802
54.8	487.678
54.84	559.927
54.88	343.181
54.92	379.305
54.96	234.808
55	343.181
55.04	234.808
55.08	379.305
55.12	415.429
55.16	343.181
55.2	379.305
55.24	216.746
55.28	379.305
55.32	343.181
55.36	270.932
55.4	126.435
55.44	325.119
55.48	343.181
55.52	307.056
55.56	307.056
55.6	234.808
55.64	234.808
55.68	144.497
55.72	216.746
55.76	270.932
55.8	126.435
55.84	144.497
55.88	288.994
55.92	288.994
55.96	216.746
56	270.932
56.04	379.305
56.08	451.554
56.12	397.367
56.16	307.056
56.2	487.678
56.24	379.305
56.28	252.87
56.32	288.994
56.36	252.87
56.4	270.932
56.44	216.746
56.48	270.932
56.52	162.559
56.56	379.305
56.6	234.808
56.64	325.119
56.68	307.056
56.72	361.243
56.76	379.305
56.8	415.429
56.84	415.429
56.88	487.678
56.92	487.678
56.96	361.243
57	270.932
57.04	325.119
57.08	234.808
57.12	451.554
57.16	288.994
57.2	343.181
57.24	234.808
57.28	198.684
57.32	252.87
57.36	288.994
57.4	162.559
57.44	216.746
57.48	180.621
57.52	343.181
57.56	180.621
57.6	252.87
57.64	180.621
57.68	198.684
57.72	307.056
57.76	270.932
57.8	307.056
57.84	325.119
57.88	307.056
57.92	270.932
57.96	288.994
58	325.119
58.04	307.056
58.08	451.554
58.12	288.994
58.16	234.808
58.2	234.808
58.24	234.808
58.28	162.559
58.32	162.559
58.36	234.808
58.4	325.119
58.44	270.932
58.48	270.932
58.52	379.305
58.56	216.746
58.6	252.87
58.64	234.808
58.68	361.243
58.72	469.616
58.76	198.684
58.8	288.994
58.84	397.367
58.88	252.87
58.92	216.746
58.96	216.746
59	288.994
59.04	325.119
59.08	325.119
59.12	325.119
59.16	252.87
59.2	325.119
59.24	361.243
59.28	288.994
59.32	216.746
59.36	325.119
59.4	361.243
59.44	162.559
59.48	198.684
59.52	270.932
59.56	361.243
59.6	216.746
59.64	361.243
59.68	559.927
59.72	379.305
59.76	487.678
59.8	451.554
59.84	469.616
59.88	451.554
59.92	415.429
59.96	469.616
60	361.243