File: program/database/experiments/MU/xrd/1102/parallel/liftfsi/xrd/80.TXT
Sample
Comments
Filename	C:\Data\西出研\梅木\20211102オペ\LiFTFSI_02_0001_0079-2_C_2θ.raw
Goniometer	SmartLab(In-plane)
Attachment	標準Zステージ
Monochromater	None
X	0
Y	0
Z	0.00908
ScanningMode	2Theta
ScanningType	Continuos Scanning
X-Ray	40kV/30mA
入射スリット	0.300mm
受光スリット1	20.000mm
受光スリット2	20.000mm
None
Start	5
Stop	60
Step	0.02
Speed	21.6746
Theta	0
5	3811.11
5.04	3413.75
5.08	3178.94
5.12	3395.68
5.16	3106.69
5.2	3215.06
5.24	3467.93
5.28	3305.37
5.32	3666.62
5.36	3341.5
5.4	3106.69
5.44	3702.74
5.48	3323.44
5.52	3377.62
5.56	3612.43
5.6	3467.93
5.64	3359.56
5.68	2980.25
5.72	3467.93
5.76	3522.12
5.8	3594.37
5.84	3413.75
5.88	3178.94
5.92	3287.31
5.96	3160.88
6	2889.94
6.04	2998.32
6.08	3413.75
6.12	3359.56
6.16	3359.56
6.2	3341.5
6.24	2745.45
6.28	2962.19
6.32	2998.32
6.36	3215.06
6.4	3215.06
6.44	3702.74
6.48	3197
6.52	3142.81
6.56	3160.88
6.6	2980.25
6.64	2871.88
6.68	3124.75
6.72	2908.01
6.76	3178.94
6.8	2817.69
6.84	2998.32
6.88	2691.26
6.92	3034.44
6.96	3413.75
7	3269.25
7.04	2871.88
7.08	2926.07
7.12	3124.75
7.16	3124.75
7.2	3016.38
7.24	3070.56
7.28	2799.63
7.32	3305.37
7.36	3034.44
7.4	3034.44
7.44	2709.32
7.48	3395.68
7.52	2817.69
7.56	3124.75
7.6	3070.56
7.64	3215.06
7.68	2998.32
7.72	2691.26
7.76	2799.63
7.8	3413.75
7.84	3377.62
7.88	2763.51
7.92	3070.56
7.96	3233.12
8	3142.81
8.04	3160.88
8.08	3016.38
8.12	3197
8.16	3233.12
8.2	3215.06
8.24	2889.94
8.28	2962.19
8.32	2962.19
8.36	2709.32
8.4	3359.56
8.44	3287.31
8.48	3197
8.52	2998.32
8.56	3160.88
8.6	2420.33
8.64	3178.94
8.68	3449.87
8.72	2926.07
8.76	2980.25
8.8	2998.32
8.84	2817.69
8.88	3178.94
8.92	3160.88
8.96	3052.5
9	3251.19
9.04	3070.56
9.08	3323.44
9.12	2889.94
9.16	3287.31
9.2	3774.99
9.24	3395.68
9.28	3106.69
9.32	2817.69
9.36	2799.63
9.4	3178.94
9.44	3359.56
9.48	2528.7
9.52	2980.25
9.56	2926.07
9.6	2944.13
9.64	2799.63
9.68	3034.44
9.72	2871.88
9.76	2637.07
9.8	2528.7
9.84	2799.63
9.88	2853.82
9.92	2908.01
9.96	2853.82
10	2546.76
10.04	2745.45
10.08	3160.88
10.12	2926.07
10.16	2727.38
10.2	3197
10.24	2655.14
10.28	2474.51
10.32	2853.82
10.36	2691.26
10.4	2980.25
10.44	2619.01
10.48	2745.45
10.52	2366.14
10.56	3088.63
10.6	2691.26
10.64	2582.89
10.68	2619.01
10.72	2384.2
10.76	2998.32
10.8	2799.63
10.84	2745.45
10.88	2799.63
10.92	2637.07
10.96	2944.13
11	2980.25
11.04	2691.26
11.08	2908.01
11.12	2817.69
11.16	2402.27
11.2	2673.2
11.24	3052.5
11.28	2528.7
11.32	2889.94
11.36	2926.07
11.4	3016.38
11.44	2564.82
11.48	2835.76
11.52	2691.26
11.56	3016.38
11.6	2908.01
11.64	2438.39
11.68	2962.19
11.72	2637.07
11.76	2384.2
11.8	2564.82
11.84	2456.45
11.88	2384.2
11.92	2817.69
11.96	2600.95
12	2637.07
12.04	2546.76
12.08	2348.08
12.12	2564.82
12.16	2853.82
12.2	2492.58
12.24	3233.12
12.28	2817.69
12.32	2799.63
12.36	2799.63
12.4	2655.14
12.44	3215.06
12.48	3648.55
12.52	4172.36
12.56	3594.37
12.6	2908.01
12.64	2673.2
12.68	2853.82
12.72	2438.39
12.76	2871.88
12.8	2528.7
12.84	2366.14
12.88	2456.45
12.92	3088.63
12.96	2492.58
13	2330.02
13.04	2167.46
13.08	2637.07
13.12	2619.01
13.16	2077.15
13.2	2474.51
13.24	2510.64
13.28	2709.32
13.32	2113.27
13.36	2402.27
13.4	2420.33
13.44	2691.26
13.48	2709.32
13.52	2149.4
13.56	2275.83
13.6	2510.64
13.64	2113.27
13.68	2510.64
13.72	2239.71
13.76	2311.95
13.8	2673.2
13.84	2835.76
13.88	2564.82
13.92	2275.83
13.96	2275.83
14	2763.51
14.04	2474.51
14.08	2293.89
14.12	2456.45
14.16	2293.89
14.2	2691.26
14.24	2239.71
14.28	2041.02
14.32	2528.7
14.36	2456.45
14.4	2420.33
14.44	2564.82
14.48	2348.08
14.52	2420.33
14.56	2420.33
14.6	2492.58
14.64	2004.9
14.68	2185.52
14.72	2221.64
14.76	2582.89
14.8	2600.95
14.84	2799.63
14.88	2456.45
14.92	2528.7
14.96	2745.45
15	2655.14
15.04	2817.69
15.08	2944.13
15.12	2420.33
15.16	2438.39
15.2	2366.14
15.24	2149.4
15.28	2384.2
15.32	2257.77
15.36	2041.02
15.4	2474.51
15.44	2275.83
15.48	2311.95
15.52	2257.77
15.56	2474.51
15.6	2077.15
15.64	2095.21
15.68	2420.33
15.72	1950.71
15.76	2456.45
15.8	2167.46
15.84	2546.76
15.88	2474.51
15.92	2474.51
15.96	2871.88
16	2980.25
16.04	4190.42
16.08	3756.93
16.12	3233.12
16.16	2492.58
16.2	2059.08
16.24	2239.71
16.28	2167.46
16.32	2022.96
16.36	2275.83
16.4	2113.27
16.44	2492.58
16.48	2131.33
16.52	2709.32
16.56	2131.33
16.6	2113.27
16.64	2077.15
16.68	2059.08
16.72	2004.9
16.76	2257.77
16.8	2492.58
16.84	1571.41
16.88	2348.08
16.92	2564.82
16.96	1842.34
17	2221.64
17.04	2095.21
17.08	2275.83
17.12	2474.51
17.16	2095.21
17.2	2095.21
17.24	2348.08
17.28	2041.02
17.32	1968.77
17.36	2059.08
17.4	2113.27
17.44	2420.33
17.48	1715.9
17.52	1914.59
17.56	2384.2
17.6	2167.46
17.64	1968.77
17.68	2185.52
17.72	2022.96
17.76	2239.71
17.8	2456.45
17.84	3088.63
17.88	3630.49
17.92	5653.45
17.96	7568.04
18	7477.73
18.04	5310.27
18.08	3323.44
18.12	2275.83
18.16	2402.27
18.2	2167.46
18.24	2185.52
18.28	2474.51
18.32	2926.07
18.36	2835.76
18.4	3612.43
18.44	4569.72
18.48	5924.38
18.52	5382.52
18.56	3594.37
18.6	2745.45
18.64	2257.77
18.68	2203.58
18.72	2239.71
18.76	2167.46
18.8	2167.46
18.84	2131.33
18.88	1878.46
18.92	1932.65
18.96	2257.77
19	2077.15
19.04	2384.2
19.08	2438.39
19.12	3540.18
19.16	4172.36
19.2	5671.51
19.24	5779.89
19.28	4623.91
19.32	3377.62
19.36	2619.01
19.4	2077.15
19.44	1824.28
19.48	2022.96
19.52	1986.84
19.56	1914.59
19.6	1860.4
19.64	1824.28
19.68	1878.46
19.72	1878.46
19.76	1733.97
19.8	2059.08
19.84	1896.53
19.88	2221.64
19.92	1986.84
19.96	1806.21
20	2528.7
20.04	2637.07
20.08	2637.07
20.12	2149.4
20.16	2167.46
20.2	1770.09
20.24	1625.59
20.28	2022.96
20.32	2041.02
20.36	1986.84
20.4	2041.02
20.44	1824.28
20.48	1625.59
20.52	1896.53
20.56	1788.15
20.6	1733.97
20.64	1535.28
20.68	2041.02
20.72	1643.66
20.76	2059.08
20.8	1463.03
20.84	1860.4
20.88	2330.02
20.92	2528.7
20.96	4389.1
21	6213.38
21.04	7983.47
21.08	6682.99
21.12	4316.85
21.16	2600.95
21.2	2203.58
21.24	1968.77
21.28	1770.09
21.32	1264.35
21.36	1824.28
21.4	1968.77
21.44	1824.28
21.48	1770.09
21.52	2275.83
21.56	1932.65
21.6	1788.15
21.64	2239.71
21.68	1914.59
21.72	1788.15
21.76	1481.1
21.8	1697.84
21.84	1878.46
21.88	1752.03
21.92	1932.65
21.96	1643.66
22	1535.28
22.04	1878.46
22.08	1535.28
22.12	1788.15
22.16	1878.46
22.2	1679.78
22.24	1463.03
22.28	1679.78
22.32	1390.79
22.36	1607.53
22.4	1661.72
22.44	1752.03
22.48	1968.77
22.52	1715.9
22.56	1607.53
22.6	1770.09
22.64	1842.34
22.68	2167.46
22.72	1535.28
22.76	1390.79
22.8	1499.16
22.84	1860.4
22.88	1733.97
22.92	1228.23
22.96	1535.28
23	1589.47
23.04	1860.4
23.08	2004.9
23.12	2402.27
23.16	2203.58
23.2	1715.9
23.24	2022.96
23.28	2059.08
23.32	2004.9
23.36	2528.7
23.4	1914.59
23.44	1824.28
23.48	1535.28
23.52	1733.97
23.56	1390.79
23.6	1661.72
23.64	1752.03
23.68	1697.84
23.72	1553.34
23.76	1372.72
23.8	1481.1
23.84	1155.98
23.88	1137.92
23.92	1499.16
23.96	1390.79
24	1499.16
24.04	1553.34
24.08	1119.85
24.12	1390.79
24.16	1535.28
24.2	1390.79
24.24	1553.34
24.28	1499.16
24.32	1553.34
24.36	1426.91
24.4	1571.41
24.44	1354.66
24.48	1336.6
24.52	1499.16
24.56	1444.97
24.6	1354.66
24.64	1535.28
24.68	1715.9
24.72	1625.59
24.76	1517.22
24.8	1210.16
24.84	1463.03
24.88	1174.04
24.92	1318.54
24.96	1228.23
25	1679.78
25.04	1535.28
25.08	1336.6
25.12	1499.16
25.16	1788.15
25.2	1607.53
25.24	1824.28
25.28	1968.77
25.32	2293.89
25.36	2727.38
25.4	2889.94
25.44	2745.45
25.48	2817.69
25.52	4027.86
25.56	5779.89
25.6	6412.06
25.64	5165.77
25.68	3919.49
25.72	2528.7
25.76	1986.84
25.8	1372.72
25.84	1210.16
25.88	1354.66
25.92	1210.16
25.96	1101.79
26	1643.66
26.04	1300.47
26.08	1571.41
26.12	1625.59
26.16	1246.29
26.2	1625.59
26.24	2402.27
26.28	2835.76
26.32	3070.56
26.36	2637.07
26.4	1770.09
26.44	1733.97
26.48	1119.85
26.52	1752.03
26.56	1607.53
26.6	1463.03
26.64	1932.65
26.68	1336.6
26.72	1336.6
26.76	1192.1
26.8	1264.35
26.84	1029.54
26.88	1354.66
26.92	1300.47
26.96	1174.04
27	1192.1
27.04	1192.1
27.08	1300.47
27.12	1137.92
27.16	1137.92
27.2	993.418
27.24	1065.67
27.28	1444.97
27.32	1246.29
27.36	2004.9
27.4	2817.69
27.44	4497.47
27.48	5454.77
27.52	5400.58
27.56	4497.47
27.6	2673.2
27.64	1679.78
27.68	1372.72
27.72	1246.29
27.76	1119.85
27.8	1065.67
27.84	1300.47
27.88	1282.41
27.92	1282.41
27.96	1174.04
28	1083.73
28.04	975.356
28.08	921.169
28.12	848.921
28.16	1101.79
28.2	1047.6
28.24	1210.16
28.28	1011.48
28.32	1047.6
28.36	993.418
28.4	1282.41
28.44	848.921
28.48	993.418
28.52	939.232
28.56	1065.67
28.6	939.232
28.64	1101.79
28.68	1228.23
28.72	1029.54
28.76	1083.73
28.8	1390.79
28.84	1047.6
28.88	1011.48
28.92	1228.23
28.96	975.356
29	1065.67
29.04	1011.48
29.08	993.418
29.12	794.734
29.16	1101.79
29.2	1119.85
29.24	866.983
29.28	975.356
29.32	921.169
29.36	1047.6
29.4	776.672
29.44	722.486
29.48	740.548
29.52	1137.92
29.56	993.418
29.6	740.548
29.64	1029.54
29.68	848.921
29.72	939.232
29.76	794.734
29.8	1300.47
29.84	1029.54
29.88	1228.23
29.92	1155.98
29.96	1300.47
30	1300.47
30.04	1137.92
30.08	776.672
30.12	921.169
30.16	812.797
30.2	740.548
30.24	1047.6
30.28	975.356
30.32	830.859
30.36	830.859
30.4	1174.04
30.44	1318.54
30.48	1318.54
30.52	1174.04
30.56	1065.67
30.6	1029.54
30.64	993.418
30.68	1047.6
30.72	921.169
30.76	885.045
30.8	957.294
30.84	975.356
30.88	812.797
30.92	921.169
30.96	921.169
31	830.859
31.04	740.548
31.08	1029.54
31.12	758.61
31.16	686.362
31.2	722.486
31.24	921.169
31.28	758.61
31.32	1174.04
31.36	1192.1
31.4	1047.6
31.44	921.169
31.48	1228.23
31.52	740.548
31.56	794.734
31.6	975.356
31.64	794.734
31.68	686.362
31.72	794.734
31.76	993.418
31.8	866.983
31.84	794.734
31.88	921.169
31.92	885.045
31.96	758.61
32	559.927
32.04	794.734
32.08	686.362
32.12	776.672
32.16	758.61
32.2	812.797
32.24	866.983
32.28	903.107
32.32	1282.41
32.36	1390.79
32.4	1643.66
32.44	1643.66
32.48	1318.54
32.52	1137.92
32.56	1137.92
32.6	830.859
32.64	1101.79
32.68	1499.16
32.72	1607.53
32.76	1824.28
32.8	1553.34
32.84	1300.47
32.88	1282.41
32.92	1119.85
32.96	812.797
33	1083.73
33.04	1300.47
33.08	1029.54
33.12	1119.85
33.16	885.045
33.2	939.232
33.24	686.362
33.28	740.548
33.32	740.548
33.36	812.797
33.4	776.672
33.44	559.927
33.48	686.362
33.52	541.864
33.56	577.989
33.6	758.61
33.64	921.169
33.68	722.486
33.72	848.921
33.76	830.859
33.8	812.797
33.84	848.921
33.88	686.362
33.92	704.424
33.96	650.237
34	650.237
34.04	957.294
34.08	885.045
34.12	722.486
34.16	650.237
34.2	740.548
34.24	487.678
34.28	704.424
34.32	740.548
34.36	614.113
34.4	650.237
34.44	776.672
34.48	704.424
34.52	614.113
34.56	632.175
34.6	758.61
34.64	650.237
34.68	722.486
34.72	596.051
34.76	812.797
34.8	812.797
34.84	776.672
34.88	812.797
34.92	650.237
34.96	722.486
35	632.175
35.04	740.548
35.08	650.237
35.12	885.045
35.16	632.175
35.2	650.237
35.24	632.175
35.28	614.113
35.32	577.989
35.36	758.61
35.4	505.74
35.44	559.927
35.48	523.802
35.52	505.74
35.56	433.492
35.6	632.175
35.64	740.548
35.68	487.678
35.72	523.802
35.76	740.548
35.8	614.113
35.84	740.548
35.88	1137.92
35.92	577.989
35.96	794.734
36	830.859
36.04	812.797
36.08	740.548
36.12	650.237
36.16	758.61
36.2	758.61
36.24	541.864
36.28	577.989
36.32	541.864
36.36	975.356
36.4	776.672
36.44	686.362
36.48	704.424
36.52	704.424
36.56	614.113
36.6	921.169
36.64	740.548
36.68	939.232
36.72	1282.41
36.76	1210.16
36.8	1083.73
36.84	921.169
36.88	758.61
36.92	903.107
36.96	668.299
37	1390.79
37.04	1101.79
37.08	1264.35
37.12	1119.85
37.16	1282.41
37.2	1264.35
37.24	650.237
37.28	632.175
37.32	632.175
37.36	758.61
37.4	740.548
37.44	596.051
37.48	650.237
37.52	722.486
37.56	921.169
37.6	830.859
37.64	577.989
37.68	632.175
37.72	523.802
37.76	722.486
37.8	704.424
37.84	885.045
37.88	1065.67
37.92	885.045
37.96	848.921
38	885.045
38.04	614.113
38.08	668.299
38.12	830.859
38.16	848.921
38.2	957.294
38.24	957.294
38.28	1192.1
38.32	866.983
38.36	668.299
38.4	487.678
38.44	541.864
38.48	614.113
38.52	632.175
38.56	632.175
38.6	614.113
38.64	469.616
38.68	668.299
38.72	668.299
38.76	830.859
38.8	686.362
38.84	903.107
38.88	650.237
38.92	722.486
38.96	758.61
39	758.61
39.04	1065.67
39.08	1137.92
39.12	1246.29
39.16	1408.85
39.2	1444.97
39.24	1715.9
39.28	1336.6
39.32	1192.1
39.36	903.107
39.4	523.802
39.44	523.802
39.48	487.678
39.52	577.989
39.56	433.492
39.6	505.74
39.64	451.554
39.68	487.678
39.72	487.678
39.76	505.74
39.8	668.299
39.84	668.299
39.88	541.864
39.92	596.051
39.96	632.175
40	541.864
40.04	541.864
40.08	668.299
40.12	866.983
40.16	523.802
40.2	379.305
40.24	577.989
40.28	307.056
40.32	469.616
40.36	668.299
40.4	451.554
40.44	415.429
40.48	614.113
40.52	577.989
40.56	505.74
40.6	397.367
40.64	541.864
40.68	523.802
40.72	758.61
40.76	505.74
40.8	379.305
40.84	433.492
40.88	469.616
40.92	415.429
40.96	433.492
41	397.367
41.04	288.994
41.08	469.616
41.12	487.678
41.16	487.678
41.2	307.056
41.24	469.616
41.28	632.175
41.32	541.864
41.36	451.554
41.4	668.299
41.44	848.921
41.48	921.169
41.52	939.232
41.56	1011.48
41.6	830.859
41.64	939.232
41.68	686.362
41.72	505.74
41.76	668.299
41.8	361.243
41.84	559.927
41.88	577.989
41.92	577.989
41.96	541.864
42	559.927
42.04	614.113
42.08	596.051
42.12	523.802
42.16	650.237
42.2	487.678
42.24	487.678
42.28	451.554
42.32	379.305
42.36	415.429
42.4	433.492
42.44	541.864
42.48	433.492
42.52	487.678
42.56	523.802
42.6	596.051
42.64	541.864
42.68	433.492
42.72	505.74
42.76	614.113
42.8	776.672
42.84	668.299
42.88	758.61
42.92	848.921
42.96	794.734
43	776.672
43.04	523.802
43.08	379.305
43.12	523.802
43.16	541.864
43.2	415.429
43.24	433.492
43.28	469.616
43.32	469.616
43.36	559.927
43.4	433.492
43.44	361.243
43.48	270.932
43.52	451.554
43.56	252.87
43.6	740.548
43.64	379.305
43.68	397.367
43.72	541.864
43.76	614.113
43.8	541.864
43.84	361.243
43.88	505.74
43.92	397.367
43.96	614.113
44	397.367
44.04	469.616
44.08	433.492
44.12	379.305
44.16	433.492
44.2	433.492
44.24	523.802
44.28	541.864
44.32	596.051
44.36	288.994
44.4	343.181
44.44	451.554
44.48	379.305
44.52	343.181
44.56	397.367
44.6	433.492
44.64	415.429
44.68	415.429
44.72	541.864
44.76	632.175
44.8	451.554
44.84	451.554
44.88	614.113
44.92	451.554
44.96	577.989
45	234.808
45.04	180.621
45.08	523.802
45.12	234.808
45.16	325.119
45.2	541.864
45.24	469.616
45.28	379.305
45.32	361.243
45.36	487.678
45.4	415.429
45.44	288.994
45.48	433.492
45.52	361.243
45.56	379.305
45.6	379.305
45.64	397.367
45.68	469.616
45.72	343.181
45.76	325.119
45.8	325.119
45.84	415.429
45.88	343.181
45.92	433.492
45.96	343.181
46	451.554
46.04	288.994
46.08	270.932
46.12	397.367
46.16	361.243
46.2	632.175
46.24	505.74
46.28	776.672
46.32	740.548
46.36	686.362
46.4	523.802
46.44	379.305
46.48	541.864
46.52	415.429
46.56	541.864
46.6	325.119
46.64	451.554
46.68	361.243
46.72	361.243
46.76	361.243
46.8	361.243
46.84	343.181
46.88	270.932
46.92	270.932
46.96	397.367
47	288.994
47.04	343.181
47.08	523.802
47.12	505.74
47.16	541.864
47.2	451.554
47.24	577.989
47.28	559.927
47.32	433.492
47.36	650.237
47.4	361.243
47.44	451.554
47.48	415.429
47.52	451.554
47.56	614.113
47.6	361.243
47.64	523.802
47.68	650.237
47.72	487.678
47.76	505.74
47.8	776.672
47.84	505.74
47.88	379.305
47.92	451.554
47.96	505.74
48	361.243
48.04	270.932
48.08	415.429
48.12	361.243
48.16	234.808
48.2	307.056
48.24	433.492
48.28	451.554
48.32	451.554
48.36	234.808
48.4	307.056
48.44	343.181
48.48	541.864
48.52	433.492
48.56	523.802
48.6	469.616
48.64	361.243
48.68	325.119
48.72	361.243
48.76	325.119
48.8	307.056
48.84	469.616
48.88	288.994
48.92	234.808
48.96	307.056
49	343.181
49.04	325.119
49.08	343.181
49.12	307.056
49.16	307.056
49.2	361.243
49.24	397.367
49.28	379.305
49.32	288.994
49.36	216.746
49.4	270.932
49.44	397.367
49.48	379.305
49.52	451.554
49.56	469.616
49.6	343.181
49.64	379.305
49.68	288.994
49.72	559.927
49.76	415.429
49.8	433.492
49.84	433.492
49.88	451.554
49.92	307.056
49.96	487.678
50	469.616
50.04	415.429
50.08	415.429
50.12	415.429
50.16	415.429
50.2	307.056
50.24	270.932
50.28	397.367
50.32	307.056
50.36	325.119
50.4	361.243
50.44	288.994
50.48	415.429
50.52	216.746
50.56	343.181
50.6	433.492
50.64	415.429
50.68	523.802
50.72	523.802
50.76	415.429
50.8	397.367
50.84	325.119
50.88	361.243
50.92	343.181
50.96	325.119
51	379.305
51.04	288.994
51.08	252.87
51.12	361.243
51.16	415.429
51.2	379.305
51.24	343.181
51.28	469.616
51.32	415.429
51.36	379.305
51.4	234.808
51.44	288.994
51.48	451.554
51.52	415.429
51.56	361.243
51.6	397.367
51.64	379.305
51.68	397.367
51.72	216.746
51.76	307.056
51.8	361.243
51.84	216.746
51.88	343.181
51.92	288.994
51.96	397.367
52	469.616
52.04	487.678
52.08	541.864
52.12	325.119
52.16	288.994
52.2	415.429
52.24	433.492
52.28	270.932
52.32	433.492
52.36	270.932
52.4	451.554
52.44	343.181
52.48	433.492
52.52	343.181
52.56	361.243
52.6	325.119
52.64	252.87
52.68	397.367
52.72	379.305
52.76	343.181
52.8	325.119
52.84	541.864
52.88	451.554
52.92	288.994
52.96	325.119
53	234.808
53.04	252.87
53.08	288.994
53.12	234.808
53.16	288.994
53.2	415.429
53.24	379.305
53.28	343.181
53.32	523.802
53.36	541.864
53.4	361.243
53.44	379.305
53.48	361.243
53.52	397.367
53.56	288.994
53.6	415.429
53.64	505.74
53.68	198.684
53.72	487.678
53.76	252.87
53.8	234.808
53.84	325.119
53.88	252.87
53.92	361.243
53.96	270.932
54	307.056
54.04	288.994
54.08	288.994
54.12	379.305
54.16	361.243
54.2	361.243
54.24	343.181
54.28	397.367
54.32	541.864
54.36	577.989
54.4	559.927
54.44	794.734
54.48	812.797
54.52	668.299
54.56	632.175
54.6	523.802
54.64	541.864
54.68	270.932
54.72	288.994
54.76	361.243
54.8	216.746
54.84	252.87
54.88	469.616
54.92	162.559
54.96	433.492
55	270.932
55.04	180.621
55.08	198.684
55.12	397.367
55.16	433.492
55.2	451.554
55.24	198.684
55.28	288.994
55.32	270.932
55.36	307.056
55.4	270.932
55.44	234.808
55.48	234.808
55.52	270.932
55.56	325.119
55.6	361.243
55.64	307.056
55.68	216.746
55.72	270.932
55.76	307.056
55.8	288.994
55.84	252.87
55.88	361.243
55.92	397.367
55.96	397.367
56	397.367
56.04	559.927
56.08	343.181
56.12	325.119
56.16	325.119
56.2	270.932
56.24	307.056
56.28	216.746
56.32	307.056
56.36	252.87
56.4	307.056
56.44	252.87
56.48	433.492
56.52	325.119
56.56	433.492
56.6	325.119
56.64	307.056
56.68	343.181
56.72	433.492
56.76	307.056
56.8	379.305
56.84	397.367
56.88	379.305
56.92	343.181
56.96	343.181
57	505.74
57.04	469.616
57.08	180.621
57.12	397.367
57.16	325.119
57.2	361.243
57.24	234.808
57.28	216.746
57.32	216.746
57.36	288.994
57.4	325.119
57.44	379.305
57.48	270.932
57.52	252.87
57.56	180.621
57.6	415.429
57.64	270.932
57.68	361.243
57.72	415.429
57.76	325.119
57.8	307.056
57.84	252.87
57.88	325.119
57.92	307.056
57.96	325.119
58	234.808
58.04	252.87
58.08	252.87
58.12	270.932
58.16	216.746
58.2	198.684
58.24	234.808
58.28	180.621
58.32	288.994
58.36	270.932
58.4	451.554
58.44	415.429
58.48	288.994
58.52	415.429
58.56	415.429
58.6	397.367
58.64	361.243
58.68	325.119
58.72	325.119
58.76	343.181
58.8	162.559
58.84	216.746
58.88	343.181
58.92	288.994
58.96	307.056
59	397.367
59.04	343.181
59.08	343.181
59.12	343.181
59.16	252.87
59.2	343.181
59.24	270.932
59.28	288.994
59.32	379.305
59.36	397.367
59.4	270.932
59.44	343.181
59.48	361.243
59.52	288.994
59.56	379.305
59.6	541.864
59.64	451.554
59.68	523.802
59.72	505.74
59.76	361.243
59.8	451.554
59.84	596.051
59.88	361.243
59.92	433.492
59.96	379.305
60	505.74