File: database/experiments/MU/xrd/1102/intensive/liftfsi/xrd.TXT
Sample
Comments
Filename	C:\Data\西出研\梅木\20211102オペ\ベッセル\LiFTFSI_2θ_θ.raw
Goniometer	SmartLab(In-plane)
Attachment	Zステージ単独
Monochromater	None
X	0
Y	0
Z	0.02762
ScanningMode	2Theta/Theta
ScanningType	Continuos Scanning
X-Ray	40kV/30mA
入射スリット	2/3deg
受光スリット1	20.000mm
受光スリット2	20.000mm
Cu_K-beta
Start	5
Stop	60
Step	0.02
Speed	21.6746
Offset	0
5	47539.6
5.04	49002.6
5.08	47557.6
5.12	44848.3
5.16	42608.6
5.2	39700.6
5.24	38833.6
5.28	37244.1
5.32	34697.4
5.36	34462.6
5.4	31735.2
5.44	32313.2
5.48	29676.1
5.52	31121.1
5.56	29856.7
5.6	28700.8
5.64	28122.8
5.68	26894.5
5.72	26515.2
5.76	27526.7
5.8	27400.3
5.84	27743.5
5.88	27273.8
5.92	26461
5.96	26424.9
6	27382.2
6.04	26154
6.08	25955.3
6.12	27707.3
6.16	27526.7
6.2	25955.3
6.24	26316.5
6.28	25774.7
6.32	26334.6
6.36	26226.2
6.4	25413.4
6.44	25774.7
6.48	26406.9
6.52	26984.8
6.56	25521.8
6.6	27183.5
6.64	25865
6.68	25846.9
6.72	27743.5
6.76	26334.6
6.8	25774.7
6.84	25323.1
6.88	24835.5
6.92	26659.7
6.96	25431.5
7	26388.8
7.04	24799.3
7.08	26063.7
7.12	27346.1
7.16	25774.7
7.2	26045.6
7.24	25359.3
7.28	24925.8
7.32	24492.3
7.36	25955.3
7.4	25106.4
7.44	25070.3
7.48	25666.3
7.52	24835.5
7.56	25305.1
7.6	24582.6
7.64	25359.3
7.68	24257.5
7.72	24727.1
7.76	24745.1
7.8	24618.7
7.84	25323.1
7.88	24365.8
7.92	24402
7.96	24365.8
8	24347.8
8.04	24420
8.08	23733.7
8.12	24781.3
8.16	24167.2
8.2	24907.7
8.24	24058.8
8.28	24094.9
8.32	24420
8.36	24727.1
8.4	25142.5
8.44	25088.3
8.48	24492.3
8.52	24040.7
8.56	24004.6
8.6	24871.6
8.64	23209.9
8.68	24094.9
8.72	23896.2
8.76	24654.8
8.8	23878.2
8.84	24149.1
8.88	23878.2
8.92	23354.4
8.96	24636.8
9	23950.4
9.04	25034.1
9.08	23571.1
9.12	25630.2
9.16	24763.2
9.2	27057.1
9.24	27815.7
9.28	29134.2
9.32	27544.8
9.36	23842
9.4	23787.8
9.44	23535
9.48	22704.1
9.52	23516.9
9.56	23227.9
9.6	23336.3
9.64	22993.1
9.68	22415.1
9.72	22397.1
9.76	23643.3
9.8	23047.3
9.84	22541.6
9.88	22071.9
9.92	21764.9
9.96	23715.6
10	22668
10.04	22108.1
10.08	22595.7
10.12	21168.8
10.16	22884.7
10.2	22252.6
10.24	22505.4
10.28	22216.4
10.32	22397.1
10.36	22071.9
10.4	22631.9
10.44	21205
10.48	21259.1
10.52	21584.3
10.56	22668
10.6	21602.3
10.64	21168.8
10.68	22270.6
10.72	21512
10.76	20554.7
10.8	21512
10.84	21746.8
10.88	20952.1
10.92	22234.5
10.96	21042.4
11	21403.6
11.04	20175.4
11.08	20283.8
11.12	20446.3
11.16	20663.1
11.2	21620.4
11.24	21403.6
11.28	21837.1
11.32	22234.5
11.36	21638.5
11.4	20879.8
11.44	20572.8
11.48	21530.1
11.52	21439.8
11.56	21494
11.6	20229.6
11.64	21186.9
11.68	20861.8
11.72	20681.2
11.76	21186.9
11.8	20735.3
11.84	21078.5
11.88	20157.4
11.92	20861.8
11.96	21403.6
12	20410.2
12.04	20265.7
12.08	21259.1
12.12	20121.2
12.16	20681.2
12.2	18838.8
12.24	20934
12.28	20482.5
12.32	20825.7
12.36	20247.7
12.4	20410.2
12.44	21782.9
12.48	21746.8
12.52	22469.3
12.56	21205
12.6	21530.1
12.64	20934
12.68	20067
12.72	19109.8
12.76	20446.3
12.8	19832.2
12.84	20825.7
12.88	19073.6
12.92	19308.4
12.96	20049
13	19362.6
13.04	18622.1
13.08	19597.4
13.12	20157.4
13.16	18856.9
13.2	18098.3
13.24	19796.1
13.28	19452.9
13.32	19796.1
13.36	19940.6
13.4	19452.9
13.44	19001.4
13.48	18784.6
13.52	19290.4
13.56	18730.4
13.6	19290.4
13.64	17881.5
13.68	19741.9
13.72	18297
13.76	18098.3
13.8	18441.5
13.84	19326.5
13.88	20157.4
13.92	19218.1
13.96	18242.8
14	18658.2
14.04	19362.6
14.08	18459.5
14.12	18604
14.16	18242.8
14.2	18622.1
14.24	18477.6
14.28	18838.8
14.32	18459.5
14.36	19380.7
14.4	18622.1
14.44	19489.1
14.48	18062.1
14.52	18965.3
14.56	18766.6
14.6	18152.5
14.64	18062.1
14.68	18911.1
14.72	17719
14.76	17917.7
14.8	18640.1
14.84	18477.6
14.88	18838.8
14.92	18567.9
14.96	19452.9
15	19218.1
15.04	20518.6
15.08	20319.9
15.12	20753.4
15.16	19778.1
15.2	19145.9
15.24	18152.5
15.28	17321.6
15.32	17592.5
15.36	19055.6
15.4	18477.6
15.44	17719
15.48	18080.2
15.52	17700.9
15.56	16653.3
15.6	18369.2
15.64	18549.8
15.68	18260.8
15.72	17303.5
15.76	18315
15.8	18297
15.84	18242.8
15.88	20428.3
15.92	19850.3
15.96	20482.5
16	24528.4
16.04	25106.4
16.08	29080.1
16.12	31121.1
16.16	29459.4
16.2	23697.5
16.24	18748.5
16.28	18098.3
16.32	17393.8
16.36	18297
16.4	17159
16.44	16906.2
16.48	17177.1
16.52	17177.1
16.56	17249.3
16.6	17050.7
16.64	18477.6
16.68	18116.3
16.72	17068.7
16.76	18676.3
16.8	18116.3
16.84	17863.5
16.88	17466.1
16.92	17249.3
16.96	16779.7
17	16075.3
17.04	17773.2
17.08	16346.2
17.12	17213.2
17.16	17231.3
17.2	16508.8
17.24	16852
17.28	17881.5
17.32	17050.7
17.36	17213.2
17.4	17538.3
17.44	16635.2
17.48	16779.7
17.52	16075.3
17.56	17104.9
17.6	16599.1
17.64	16689.4
17.68	18008
17.72	17321.6
17.76	17592.5
17.8	18856.9
17.84	19633.6
17.88	23516.9
17.92	26569.4
17.96	32548
18	36214.6
18.04	38671.1
18.08	33035.7
18.12	24022.7
18.16	18531.8
18.2	17700.9
18.24	18640.1
18.28	19145.9
18.32	21313.3
18.36	23101.5
18.4	28213.1
18.44	34751.6
18.48	47214.5
18.52	64951.5
18.56	94573.4
18.6	121558
18.64	152770
18.68	141138
18.72	78425.8
18.76	34769.6
18.8	21746.8
18.84	18315
18.88	17375.8
18.92	17682.8
18.96	17375.8
19	16870
19.04	17989.9
19.08	18658.2
19.12	18911.1
19.16	21782.9
19.2	26750
19.24	32475.7
19.28	36792.6
19.32	36539.7
19.36	31861.6
19.4	21963.6
19.44	18260.8
19.48	16093.4
19.52	15298.6
19.56	14449.7
19.6	14449.7
19.64	14612.3
19.68	14233
19.72	15154.1
19.76	14684.5
19.8	15100
19.84	14377.5
19.88	15298.6
19.92	15154.1
19.96	15063.8
20	16093.4
20.04	17556.4
20.08	17538.3
20.12	18351.1
20.16	18423.4
20.2	16508.8
20.24	14052.4
20.28	13022.8
20.32	14305.2
20.36	13149.2
20.4	13944
20.44	12860.2
20.48	14792.9
20.52	13944
20.56	13546.6
20.6	13366
20.64	13781.4
20.68	14774.8
20.72	14485.8
20.76	14467.8
20.8	13889.8
20.84	16075.3
20.88	16978.4
20.92	18748.5
20.96	23282.1
21	28863.3
21.04	33974.9
21.08	38797.5
21.12	38634.9
21.16	30326.3
21.2	20211.5
21.24	15515.4
21.28	14034.3
21.32	14233
21.36	14160.7
21.4	12733.8
21.44	12679.6
21.48	13600.8
21.52	12788
21.56	12264.2
21.6	13618.9
21.64	13745.3
21.68	14359.4
21.72	16147.6
21.76	16725.5
21.8	18531.8
21.84	19001.4
21.88	18188.6
21.92	15208.3
21.96	12733.8
22	12607.4
22.04	13528.5
22.08	12372.6
22.12	12625.4
22.16	11848.8
22.2	12751.9
22.24	11993.3
22.28	13275.7
22.32	11668.1
22.36	12733.8
22.4	12517.1
22.44	11957.1
22.48	12173.9
22.52	12390.6
22.56	13058.9
22.6	12336.4
22.64	12806.1
22.68	13871.7
22.72	13727.2
22.76	13709.2
22.8	13239.6
22.84	14142.7
22.88	12444.8
22.92	13257.6
22.96	13329.9
23	13799.5
23.04	13022.8
23.08	15280.6
23.12	15930.8
23.16	16418.5
23.2	18170.5
23.24	18242.8
23.28	19182
23.32	17249.3
23.36	16310.1
23.4	16346.2
23.44	17755.1
23.48	15154.1
23.52	14720.6
23.56	12210
23.6	12517.1
23.64	11650.1
23.68	11884.9
23.72	11957.1
23.76	11577.8
23.8	11451.4
23.84	10783.1
23.88	11921
23.92	11650.1
23.96	12155.8
24	11668.1
24.04	10891.5
24.08	11433.3
24.12	10981.8
24.16	11632
24.2	11614
24.24	11198.5
24.28	11487.5
24.32	11830.7
24.36	11632
24.4	11252.7
24.44	11469.5
24.48	10747
24.52	10710.9
24.56	11921
24.6	11090.2
24.64	11686.2
24.68	11325
24.72	12065.5
24.76	11325
24.8	11288.8
24.84	11993.3
24.88	12480.9
24.92	12011.3
24.96	11921
25	12228.1
25.04	12173.9
25.08	12842.2
25.12	11740.4
25.16	13438.2
25.2	15370.9
25.24	16147.6
25.28	16183.7
25.32	17177.1
25.36	17014.5
25.4	17430
25.44	20030.9
25.48	20301.9
25.52	20572.8
25.56	24709
25.6	32692.5
25.64	44902.5
25.68	60309.5
25.72	74885.7
25.76	80214
25.8	67046.7
25.84	41253.9
25.88	25160.6
25.92	15786.3
25.96	13817.5
26	12643.5
26.04	11957.1
26.08	12842.2
26.12	12372.6
26.16	12444.8
26.2	13528.5
26.24	16093.4
26.28	16653.3
26.32	18929.1
26.36	21692.6
26.4	20879.8
26.44	17086.8
26.48	13691.1
26.52	12137.8
26.56	12029.4
26.6	12751.9
26.64	13040.9
26.68	13420.2
26.72	14305.2
26.76	13293.7
26.8	11686.2
26.84	11975.2
26.88	11325
26.92	10187.1
26.96	10620.5
27	10566.4
27.04	10494.1
27.08	10692.8
27.12	10150.9
27.16	10728.9
27.2	11469.5
27.24	11126.3
27.28	12426.8
27.32	12878.3
27.36	13131.2
27.4	17592.5
27.44	21837.1
27.48	30254.1
27.52	38400.1
27.56	43638.1
27.6	39285.2
27.64	29369.1
27.68	19832.2
27.72	15100
27.76	13582.7
27.8	12950.6
27.84	10999.8
27.88	12155.8
27.92	12300.3
27.96	12535.1
28	14973.5
28.04	17249.3
28.08	20735.3
28.12	24058.8
28.16	23444.7
28.2	19705.8
28.24	16274
28.28	12426.8
28.32	10981.8
28.36	10349.6
28.4	9356.19
28.44	9410.38
28.48	10530.2
28.52	9663.25
28.56	8832.39
28.6	9536.81
28.64	10024.5
28.68	9898.06
28.72	9175.57
28.76	10602.5
28.8	9771.62
28.84	10313.5
28.88	10584.4
28.92	10349.6
28.96	10909.5
29	9500.69
29.04	9500.69
29.08	9753.56
29.12	10096.7
29.16	10042.6
29.2	9518.75
29.24	9283.94
29.28	9735.5
29.32	8958.83
29.36	9392.32
29.4	9518.75
29.44	10150.9
29.48	9464.57
29.52	9175.57
29.56	10042.6
29.6	9988.37
29.64	10060.6
29.68	9663.25
29.72	9771.62
29.76	10187.1
29.8	9482.63
29.84	9609.06
29.88	9898.06
29.92	10223.2
29.96	11343
30	13167.3
30.04	15118
30.08	16888.1
30.12	19145.9
30.16	18044.1
30.2	13727.2
30.24	11632
30.28	10331.5
30.32	9952.24
30.36	9807.75
30.4	9735.5
30.44	9879.99
30.48	10349.6
30.52	11126.3
30.56	11325
30.6	10999.8
30.64	9771.62
30.68	9753.56
30.72	9536.81
30.76	9554.88
30.8	9175.57
30.84	9320.07
30.88	10132.9
30.92	10331.5
30.96	10963.7
31	10584.4
31.04	9898.06
31.08	8543.4
31.12	9085.26
31.16	8904.64
31.2	8940.76
31.24	8525.33
31.28	9374.25
31.32	8398.9
31.36	9175.57
31.4	8814.33
31.44	10367.7
31.48	10078.7
31.52	11577.8
31.56	9464.57
31.6	9518.75
31.64	9952.24
31.68	9175.57
31.72	9952.24
31.76	9681.31
31.8	9536.81
31.84	8525.33
31.88	8904.64
31.92	8814.33
31.96	9175.57
32	8796.27
32.04	9175.57
32.08	8615.64
32.12	8651.77
32.16	9265.88
32.2	8200.21
32.24	9121.38
32.28	9446.5
32.32	9320.07
32.36	10042.6
32.4	10981.8
32.44	12065.5
32.48	13763.4
32.52	14612.3
32.56	13275.7
32.6	12282.3
32.64	11234.7
32.68	10024.5
32.72	9807.75
32.76	10801.2
32.8	11541.7
32.84	15894.7
32.88	19254.2
32.92	24781.3
32.96	31048.8
33	35167
33.04	34372.3
33.08	25648.2
33.12	22686.1
33.16	17682.8
33.2	14503.9
33.24	15696
33.28	15948.9
33.32	12968.6
33.36	11758.5
33.4	10728.9
33.44	7893.16
33.48	8976.89
33.52	7929.28
33.56	8976.89
33.6	8146.03
33.64	7857.03
33.68	8001.53
33.72	8669.83
33.76	8326.65
33.8	8326.65
33.84	9013.01
33.88	10024.5
33.92	10999.8
33.96	11072.1
34	12896.4
34.04	12354.5
34.08	10692.8
34.12	10241.2
34.16	9139.45
34.2	9500.69
34.24	8958.83
34.28	8435.02
34.32	8525.33
34.36	8146.03
34.4	8308.59
34.44	7730.6
34.48	8182.15
34.52	8182.15
34.56	8308.59
34.6	8290.53
34.64	8742.08
34.68	8742.08
34.72	8687.89
34.76	8940.76
34.8	9229.76
34.84	8019.59
34.88	7983.47
34.92	8037.66
34.96	8742.08
35	9139.45
35.04	9265.88
35.08	10114.8
35.12	9970.3
35.16	9229.76
35.2	9157.51
35.24	8236.34
35.28	7730.6
35.32	7730.6
35.36	7423.54
35.4	7224.86
35.44	8109.9
35.48	7441.6
35.52	7586.1
35.56	6990.05
35.6	7423.54
35.64	7965.41
35.68	7622.23
35.72	8435.02
35.76	7911.22
35.8	7315.17
35.84	7044.24
35.88	7459.67
35.92	7820.91
35.96	8651.77
36	9283.94
36.04	9699.37
36.08	10999.8
36.12	11559.8
36.16	12173.9
36.2	10548.3
36.24	9861.93
36.28	9609.06
36.32	8019.59
36.36	7640.29
36.4	7513.85
36.44	7983.47
36.48	8435.02
36.52	8380.84
36.56	8633.71
36.6	9356.19
36.64	8073.78
36.68	8778.2
36.72	9211.7
36.76	8958.83
36.8	11451.4
36.84	11595.9
36.88	12661.6
36.92	11541.7
36.96	11108.2
37	9699.37
37.04	8705.96
37.08	8994.95
37.12	9789.68
37.16	11252.7
37.2	13384.1
37.24	15587.6
37.28	19669.7
37.32	20988.2
37.36	18874.9
37.4	14756.8
37.44	12408.7
37.48	11252.7
37.52	9121.38
37.56	8705.96
37.6	8398.9
37.64	8994.95
37.68	9211.7
37.72	10169
37.76	11361.1
37.8	12553.2
37.84	13564.7
37.88	13311.8
37.92	12354.5
37.96	12462.9
38	11523.6
38.04	10042.6
38.08	9067.2
38.12	9338.13
38.16	8164.09
38.2	9229.76
38.24	10078.7
38.28	11343
38.32	10530.2
38.36	11054
38.4	9807.75
38.44	9067.2
38.48	7441.6
38.52	7549.98
38.56	7730.6
38.6	7098.42
38.64	7586.1
38.68	7206.8
38.72	7875.1
38.76	7766.72
38.8	8525.33
38.84	8886.58
38.88	8868.51
38.92	8272.46
38.96	8543.4
39	9085.26
39.04	9067.2
39.08	11451.4
39.12	11541.7
39.16	13420.2
39.2	15948.9
39.24	15370.9
39.28	16852
39.32	16725.5
39.36	16382.4
39.4	14449.7
39.44	12733.8
39.48	11252.7
39.52	9916.12
39.56	8850.45
39.6	8037.66
39.64	7802.85
39.68	7387.42
39.72	7080.36
39.76	6755.24
39.8	6682.99
39.84	7477.73
39.88	7170.67
39.92	7983.47
39.96	8489.21
40	8416.96
40.04	8127.97
40.08	8416.96
40.12	8290.53
40.16	8615.64
40.2	7477.73
40.24	7586.1
40.28	7748.66
40.32	7008.11
40.36	7242.92
40.4	6592.68
40.44	7152.61
40.48	6881.68
40.52	6375.94
40.56	7549.98
40.6	6141.13
40.64	6935.86
40.68	7008.11
40.72	7513.85
40.76	7495.79
40.8	7604.16
40.84	7640.29
40.88	7586.1
40.92	7315.17
40.96	7206.8
41	6737.18
41.04	7062.3
41.08	6845.55
41.12	6755.24
41.16	6953.93
41.2	7134.55
41.24	6466.25
41.28	6177.25
41.32	6773.31
41.36	6791.37
41.4	7062.3
41.44	7044.24
41.48	7026.18
41.52	8037.66
41.56	8362.77
41.6	9392.32
41.64	11343
41.68	12860.2
41.72	14666.5
41.76	15948.9
41.8	17303.5
41.84	16833.9
41.88	14178.8
41.92	13311.8
41.96	10403.8
42	10277.4
42.04	9572.94
42.08	8742.08
42.12	8760.14
42.16	7242.92
42.2	7333.23
42.24	7224.86
42.28	6990.05
42.32	7152.61
42.36	6050.82
42.4	6737.18
42.44	7044.24
42.48	6791.37
42.52	6827.49
42.56	6827.49
42.6	6628.81
42.64	7098.42
42.68	6556.56
42.72	7333.23
42.76	6953.93
42.8	6990.05
42.84	7459.67
42.88	8416.96
42.92	8886.58
42.96	9428.44
43	9663.25
43.04	8814.33
43.08	8019.59
43.12	7766.72
43.16	8308.59
43.2	7604.16
43.24	7242.92
43.28	7224.86
43.32	7604.16
43.36	6412.06
43.4	6682.99
43.44	6682.99
43.48	6773.31
43.52	6068.88
43.56	6628.81
43.6	6755.24
43.64	6520.44
43.68	7062.3
43.72	6086.94
43.76	6737.18
43.8	7297.11
43.84	7026.18
43.88	7080.36
43.92	7260.98
43.96	6159.19
44	6971.99
44.04	6863.62
44.08	6520.44
44.12	6285.63
44.16	6791.37
44.2	6249.5
44.24	6231.44
44.28	6086.94
44.32	6141.13
44.36	7026.18
44.4	7423.54
44.44	7766.72
44.48	8308.59
44.52	8778.2
44.56	7495.79
44.6	7531.92
44.64	7026.18
44.68	6990.05
44.72	6032.76
44.76	6231.44
44.8	6719.12
44.84	6610.75
44.88	6267.56
44.92	6231.44
44.96	7279.05
45	7568.04
45.04	7477.73
45.08	7387.42
45.12	6791.37
45.16	6990.05
45.2	6701.06
45.24	6357.88
45.28	6321.75
45.32	5779.89
45.36	6159.19
45.4	6339.81
45.44	5761.82
45.48	5870.2
45.52	6592.68
45.56	6213.38
45.6	6068.88
45.64	6357.88
45.68	6394
45.72	6249.5
45.76	6321.75
45.8	6267.56
45.84	5779.89
45.88	5508.95
45.92	6123.07
45.96	5165.77
46	5888.26
46.04	5816.01
46.08	6177.25
46.12	5834.07
46.16	5743.76
46.2	6032.76
46.24	6050.82
46.28	5942.45
46.32	6159.19
46.36	6791.37
46.4	6285.63
46.44	6863.62
46.48	7206.8
46.52	7568.04
46.56	8200.21
46.6	7206.8
46.64	6646.87
46.68	6827.49
46.72	6195.32
46.76	5219.96
46.8	5418.64
46.84	5870.2
46.88	5924.38
46.92	5310.27
46.96	5996.63
47	6105.01
47.04	6032.76
47.08	6303.69
47.12	6177.25
47.16	7044.24
47.2	7658.35
47.24	8146.03
47.28	7893.16
47.32	8001.53
47.36	8218.28
47.4	7838.97
47.44	7965.41
47.48	8398.9
47.52	7676.41
47.56	9464.57
47.6	8200.21
47.64	7911.22
47.68	8109.9
47.72	7929.28
47.76	8687.89
47.8	9013.01
47.84	9861.93
47.88	9446.5
47.92	10458
47.96	9211.7
48	9085.26
48.04	8362.77
48.08	7495.79
48.12	7712.54
48.16	7044.24
48.2	6592.68
48.24	5816.01
48.28	6032.76
48.32	5834.07
48.36	6159.19
48.4	6032.76
48.44	5942.45
48.48	5707.64
48.52	6141.13
48.56	6484.31
48.6	6014.69
48.64	7694.47
48.68	7640.29
48.72	8525.33
48.76	8922.7
48.8	7748.66
48.84	6809.43
48.88	6574.62
48.92	6357.88
48.96	5924.38
49	5960.51
49.04	5472.83
49.08	5671.51
49.12	5111.59
49.16	5165.77
49.2	6592.68
49.24	7062.3
49.28	7116.49
49.32	7297.11
49.36	6682.99
49.4	7387.42
49.44	7766.72
49.48	7875.1
49.52	8471.15
49.56	7297.11
49.6	7206.8
49.64	7423.54
49.68	6755.24
49.72	6592.68
49.76	6448.19
49.8	7405.48
49.84	7405.48
49.88	7947.34
49.92	7279.05
49.96	7495.79
50	7622.23
50.04	6682.99
50.08	6899.74
50.12	6682.99
50.16	6448.19
50.2	6394
50.24	5834.07
50.28	5870.2
50.32	5978.57
50.36	5599.27
50.4	5834.07
50.44	5400.58
50.48	5888.26
50.52	6285.63
50.56	6430.12
50.6	6032.76
50.64	5653.45
50.68	6068.88
50.72	5599.27
50.76	6050.82
50.8	6321.75
50.84	5960.51
50.88	6321.75
50.92	7983.47
50.96	7369.36
51	8507.27
51.04	10494.1
51.08	10765
51.12	10006.4
51.16	9609.06
51.2	8362.77
51.24	7658.35
51.28	6935.86
51.32	6177.25
51.36	5545.08
51.4	5635.39
51.44	5454.77
51.48	5039.34
51.52	5219.96
51.56	5364.46
51.6	5472.83
51.64	5545.08
51.68	5581.2
51.72	5364.46
51.76	5870.2
51.8	6123.07
51.84	6719.12
51.88	6267.56
51.92	7008.11
51.96	6917.8
52	7080.36
52.04	6195.32
52.08	6249.5
52.12	6375.94
52.16	6574.62
52.2	6159.19
52.24	6014.69
52.28	5617.33
52.32	5978.57
52.36	5490.89
52.4	4804.53
52.44	4840.66
52.48	4641.97
52.52	4280.73
52.56	4912.9
52.6	4678.1
52.64	4967.09
52.68	4551.66
52.72	4894.84
52.76	4461.35
52.8	4912.9
52.84	4912.9
52.88	5400.58
52.92	5292.21
52.96	6249.5
53	5888.26
53.04	5978.57
53.08	5671.51
53.12	5563.14
53.16	5707.64
53.2	5003.21
53.24	4949.03
53.28	4443.29
53.32	4768.41
53.36	4894.84
53.4	5021.28
53.44	4623.91
53.48	4985.15
53.52	4822.59
53.56	5599.27
53.6	6086.94
53.64	5978.57
53.68	5382.52
53.72	5960.51
53.76	5653.45
53.8	5581.2
53.84	4930.97
53.88	4082.05
53.92	4912.9
53.96	4985.15
54	3774.99
54.04	4551.66
54.08	4244.6
54.12	4190.42
54.16	4461.35
54.2	4389.1
54.24	4389.1
54.28	3756.93
54.32	4660.03
54.36	4316.85
54.4	4136.23
54.44	4226.54
54.48	4840.66
54.52	4605.85
54.56	4497.47
54.6	5093.53
54.64	6086.94
54.68	6195.32
54.72	7838.97
54.76	8398.9
54.8	8200.21
54.84	7116.49
54.88	6285.63
54.92	6195.32
54.96	5418.64
55	4786.47
55.04	4172.36
55.08	4009.8
55.12	3991.73
55.16	4515.54
55.2	4262.67
55.24	4154.29
55.28	4298.79
55.32	4623.91
55.36	3955.61
55.4	4118.17
55.44	3395.68
55.48	3522.12
55.52	3738.86
55.56	3449.87
55.6	3666.62
55.64	3233.12
55.68	3377.62
55.72	3576.31
55.76	3666.62
55.8	3251.19
55.84	3522.12
55.88	3233.12
55.92	3774.99
55.96	3341.5
56	3847.24
56.04	3467.93
56.08	3756.93
56.12	4334.92
56.16	4425.23
56.2	4118.17
56.24	4587.79
56.28	4190.42
56.32	3937.55
56.36	4461.35
56.4	4082.05
56.44	3684.68
56.48	3630.49
56.52	3522.12
56.56	3630.49
56.6	3504.06
56.64	3251.19
56.68	3269.25
56.72	3413.75
56.76	4100.11
56.8	4027.86
56.84	4479.41
56.88	4172.36
56.92	4551.66
56.96	4497.47
57	4244.6
57.04	4118.17
57.08	3901.42
57.12	4045.92
57.16	3612.43
57.2	3702.74
57.24	3287.31
57.28	3540.18
57.32	4063.98
57.36	3793.05
57.4	3865.3
57.44	3395.68
57.48	3829.18
57.52	3377.62
57.56	3829.18
57.6	3305.37
57.64	3088.63
57.68	3576.31
57.72	3070.56
57.76	3774.99
57.8	3413.75
57.84	3305.37
57.88	3522.12
57.92	3793.05
57.96	3756.93
58	3431.81
58.04	4389.1
58.08	3811.11
58.12	3937.55
58.16	3919.49
58.2	3901.42
58.24	3829.18
58.28	3449.87
58.32	3142.81
58.36	3215.06
58.4	3178.94
58.44	3323.44
58.48	3269.25
58.52	3811.11
58.56	3522.12
58.6	3449.87
58.64	3883.36
58.68	3738.86
58.72	3630.49
58.76	3504.06
58.8	4208.48
58.84	3648.55
58.88	3883.36
58.92	3594.37
58.96	3052.5
59	3630.49
59.04	3630.49
59.08	3106.69
59.12	3341.5
59.16	3738.86
59.2	3052.5
59.24	3522.12
59.28	3901.42
59.32	3395.68
59.36	3540.18
59.4	3576.31
59.44	3919.49
59.48	3919.49
59.52	3377.62
59.56	3991.73
59.6	4100.11
59.64	3485.99
59.68	3576.31
59.72	3522.12
59.76	4371.04
59.8	4912.9
59.84	4316.85
59.88	4443.29
59.92	4479.41
59.96	4100.11
60	4190.42