File: database/experiments/MU/xrd/930(919)_ppo_chloranil_liftfsi_for_xrd/xrd.csv
x,y
10,27460.8
10.06,26871.4
10.12,25900.5
10.18,27720.9
10.24,28327.6
10.3,27079.4
10.36,27287.4
10.42,27079.4
10.48,27322.1
10.54,27530.2
10.6,28969.1
10.66,28362.3
10.72,28050.2
10.78,28136.9
10.84,27426.1
10.9,28067.6
10.96,27807.5
11.02,28449
11.08,28136.9
11.14,28431.6
11.2,29038.4
11.26,27842.2
11.32,28379.6
11.38,27218.1
11.44,27131.4
11.5,26732.7
11.56,27062.1
11.62,28154.3
11.68,27131.4
11.74,28726.4
11.8,27287.4
11.86,28743.7
11.92,27980.9
11.98,27911.6
12.04,28639.7
12.1,28449
12.16,28431.6
12.22,28639.7
12.28,28813
12.34,28379.6
12.4,26854
12.46,28362.3
12.52,29211.8
12.58,28761
12.64,28761
12.7,29350.5
12.76,28691.7
12.82,28934.4
12.88,29298.5
12.94,29870.6
13,29246.5
13.06,28501
13.12,29125.1
13.18,29021.1
13.24,29159.8
13.3,29385.1
13.36,29454.5
13.42,28327.6
13.48,29038.4
13.54,28969.1
13.6,29367.8
13.66,30095.9
13.72,28466.3
13.78,30061.3
13.84,30529.3
13.9,28917.1
13.96,29038.4
14.02,29835.9
14.08,29333.1
14.14,29038.4
14.2,30026.6
14.26,29870.6
14.32,28379.6
14.38,30252
14.44,31222.8
14.5,30078.6
14.56,29801.2
14.62,29887.9
14.68,28518.3
14.74,28622.3
14.8,29194.4
14.86,30200
14.92,29177.1
14.98,29402.5
15.04,29610.5
15.1,28709
15.16,29558.5
15.22,28726.4
15.28,30650.7
15.34,29783.9
15.4,28501
15.46,30824.1
15.52,29281.1
15.58,29229.1
15.64,28847.7
15.7,29506.5
15.76,29731.9
15.82,29281.1
15.88,28934.4
15.94,29246.5
16,28119.6
16.06,28570.3
16.12,27790.2
16.18,27894.2
16.24,28258.3
16.3,28917.1
16.36,28275.6
16.42,28605
16.48,28535.7
16.54,27027.4
16.6,28258.3
16.66,27651.5
16.72,27876.9
16.78,27824.9
16.84,27634.2
16.9,29367.8
16.96,29627.9
17.02,29385.1
17.08,29835.9
17.14,30165.3
17.2,29887.9
17.26,27790.2
17.32,29211.8
17.38,29315.8
17.44,27564.8
17.5,28830.4
17.56,28015.6
17.62,27408.8
17.68,29003.7
17.74,27252.8
17.8,26576.7
17.86,26663.3
17.92,27426.1
17.98,27114.1
18.04,26906
18.1,26802
18.16,26091.2
18.22,26784.7
18.28,26507.3
18.34,27512.8
18.4,26004.6
18.46,26368.6
18.52,26628.7
18.58,26732.7
18.64,25917.9
18.7,26229.9
18.76,25293.8
18.82,26056.6
18.88,26646
18.94,27166.1
19,28171.6
19.06,30373.3
19.12,29749.2
19.18,28136.9
19.24,29125.1
19.3,27460.8
19.36,27894.2
19.42,29003.7
19.48,28362.3
19.54,27183.4
19.6,26784.7
19.66,24444.3
19.72,24357.6
19.78,25640.5
19.84,23317.4
19.9,23594.8
19.96,24322.9
20.02,24756.3
20.08,24929.7
20.14,23144.1
20.2,23421.4
20.26,23872.2
20.32,24496.3
20.38,24739
20.44,23369.4
20.5,23542.8
20.56,23126.7
20.62,23092
20.68,23456.1
20.74,21757.1
20.8,23265.4
20.86,22415.9
20.92,22069.2
20.98,22589.3
21.04,22797.3
21.1,21791.8
21.16,22970.7
21.22,22450.6
21.28,22918.7
21.34,22710.6
21.4,23352.1
21.46,22901.3
21.52,22554.6
21.58,23716.2
21.64,23906.9
21.7,22519.9
21.76,23248.1
21.82,22311.9
21.88,23022.7
21.94,23334.8
22,22572
22.06,22554.6
22.12,22294.6
22.18,22311.9
22.24,22051.9
22.3,21722.5
22.36,22953.4
22.42,22745.3
22.48,22485.3
22.54,22138.5
22.6,21913.2
22.66,22693.3
22.72,21531.8
22.78,22259.9
22.84,21583.8
22.9,22745.3
22.96,22398.6
23.02,22970.7
23.08,23664.1
23.14,23768.2
23.2,22329.2
23.26,22693.3
23.32,21947.8
23.38,22121.2
23.44,22277.2
23.5,21670.5
23.56,22450.6
23.62,22034.5
23.68,20994.3
23.74,21341.1
23.8,20560.9
23.86,20734.3
23.92,20977
23.98,21167.7
24.04,21462.4
24.1,21219.7
24.16,20925
24.22,22346.6
24.28,20144.9
24.34,22329.2
24.4,21289.1
24.46,21271.7
24.52,23300.1
24.58,22901.3
24.64,22814.7
24.7,21947.8
24.76,22433.3
24.82,23352.1
24.88,23213.4
24.94,23040
25,22311.9
25.06,21670.5
25.12,21583.8
25.18,21133
25.24,21115.7
25.3,20387.6
25.36,20855.7
25.42,20231.5
25.48,19763.5
25.54,18411.2
25.6,18636.6
25.66,18914
25.72,19139.4
25.78,18601.9
25.84,19000.7
25.9,18376.6
25.96,18289.9
26.02,18723.3
26.08,18515.2
26.14,18289.9
26.2,18237.9
26.26,17787.1
26.32,18307.2
26.38,17041.7
26.44,17665.8
26.5,17319
26.56,17752.4
26.62,17544.4
26.68,17856.5
26.74,17873.8
26.8,17024.3
26.86,16781.6
26.92,17371
26.98,16538.9
27.04,17249.7
27.1,17197.7
27.16,17873.8
27.22,17163
27.28,16642.9
27.34,16053.5
27.4,16452.2
27.46,16365.5
27.52,16556.2
27.58,16694.9
27.64,16746.9
27.7,15724.1
27.76,15082.6
27.82,16642.9
27.88,15741.4
27.94,16001.5
28,16330.9
28.06,16140.2
28.12,15845.4
28.18,16608.2
28.24,15741.4
28.3,16556.2
28.36,15793.4
28.42,16833.6
28.48,16105.5
28.54,15550.7
28.6,16278.9
28.66,15221.3
28.72,15568.1
28.78,16573.6
28.84,17163
28.9,16105.5
28.96,16694.9
29.02,16486.9
29.08,16348.2
29.14,14839.9
29.2,15724.1
29.26,14718.6
29.32,14753.3
29.38,15377.4
29.44,15550.7
29.5,15256
29.56,15568.1
29.62,14753.3
29.68,15377.4
29.74,14597.2
29.8,15290.7
29.86,15498.7
29.92,15065.3
29.98,14978.6
30.04,14805.3
30.1,15516.1
30.16,14735.9
30.22,15013.3
30.28,14371.9
30.34,14077.1
30.4,14059.8
30.46,15464
30.52,13834.4
30.58,13903.8
30.64,14354.5
30.7,13626.4
30.76,14423.9
30.82,13591.7
30.88,13279.7
30.94,14007.8
31,13401
31.06,14441.2
31.12,13747.7
31.18,13539.7
31.24,13834.4
31.3,13730.4
31.36,13557
31.42,13626.4
31.48,13505
31.54,13227.7
31.6,13487.7
31.66,13210.3
31.72,13453
31.78,13990.5
31.84,14406.5
31.9,14025.1
31.96,14146.5
32.02,13921.1
32.08,14025.1
32.14,13609.1
32.2,12707.6
32.26,13245
32.32,13141
32.38,13089
32.44,12776.9
32.5,13054.3
32.56,12932.9
32.62,13522.4
32.68,12915.6
32.74,12828.9
32.8,13037
32.86,13539.7
32.92,13071.6
32.98,12100.8
33.04,12672.9
33.1,12412.8
33.16,13817.1
33.22,15810.8
33.28,15290.7
33.34,15897.5
33.4,14579.9
33.46,14389.2
33.52,13713.1
33.58,13591.7
33.64,13054.3
33.7,13193
33.76,13453
33.82,12690.2
33.88,12776.9
33.94,12395.5
34,12759.6
34.06,12204.8
34.12,12291.5
34.18,13193
34.24,12586.2
34.3,12690.2
34.36,11736.7
34.42,12291.5
34.48,12499.5
34.54,11788.7
34.6,12586.2
34.66,12135.5
34.72,11892.8
34.78,11892.8
34.84,12499.5
34.9,12048.8
34.96,12568.9
35.02,11892.8
35.08,12152.8
35.14,11823.4
35.2,12187.5
35.26,11684.7
35.32,11754.1
35.38,11875.4
35.44,10869.9
35.5,11511.3
35.56,12603.5
35.62,12031.4
35.68,10783.2
35.74,11390
35.8,11199.3
35.86,11390
35.92,11511.3
35.98,11268.6
36.04,11390
36.1,12031.4
36.16,11338
36.22,11442
36.28,11771.4
36.34,11806.1
36.4,11268.6
36.46,11494
36.52,11962.1
36.58,12083.5
36.64,11286
36.7,11234
36.76,11130
36.82,11442
36.88,10869.9
36.94,11286
37,10731.2
37.06,11251.3
37.12,11598
37.18,11615.4
37.24,10973.9
37.3,10887.2
37.36,11234
37.42,10557.8
37.48,10904.6
37.54,10835.2
37.6,10887.2
37.66,11112.6
37.72,10921.9
37.78,10921.9
37.84,11216.6
37.9,10748.5
37.96,11788.7
38.02,11130
38.08,12551.5
38.14,11996.8
38.2,12118.1
38.26,12863.6
38.32,12100.8
38.38,12066.1
38.44,11580.7
38.5,11771.4
38.56,10817.9
38.62,10869.9
38.68,11996.8
38.74,11112.6
38.8,10696.5
38.86,10280.5
38.92,10401.8
38.98,10488.5
39.04,10020.4
39.1,10939.3
39.16,10505.8
39.22,11008.6
39.28,10124.4
39.34,10713.9
39.4,10644.5
39.46,10453.8
39.52,9881.73
39.58,10020.4
39.64,10904.6
39.7,9881.73
39.76,11043.3
39.82,10419.2
39.88,9968.41
39.94,9812.39
40,10939.3
40.06,10453.8
40.12,9777.71
40.18,9743.04
40.24,8962.9
40.3,10055.1
40.36,9552.34
40.42,10193.8
40.48,10280.5
40.54,9760.38
40.6,9847.06
40.66,10193.8
40.72,10211.1
40.78,10020.4
40.84,10332.5
40.9,10280.5
40.96,10003.1
41.02,9673.69
41.08,9621.69
41.14,10401.8
41.2,10263.1
41.26,9639.02
41.32,9968.41
41.38,9136.27
41.44,9951.08
41.5,9656.36
41.56,10731.2
41.62,10124.4
41.68,10401.8
41.74,9864.39
41.8,10176.4
41.86,9656.36
41.92,9760.38
41.98,11060.6
42.04,10245.8
42.1,10280.5
42.16,10245.8
42.22,10817.9
42.28,10991.3
42.34,10523.2
42.4,10505.8
42.46,10401.8
42.52,10557.8
42.58,10505.8
42.64,10228.5
42.7,9673.69
42.76,9656.36
42.82,9691.03
42.88,9777.71
42.94,9500.33
43,9691.03
43.06,9725.7
43.12,9847.06
43.18,9344.3
43.24,9812.39
43.3,10141.8
43.36,9032.25
43.42,9101.59
43.48,8841.55
43.54,9673.69
43.6,9361.64
43.66,9309.63
43.72,9621.69
43.78,9205.61
43.84,9777.71
43.9,9413.65
43.96,9604.35
44.02,9847.06
44.08,10037.8
44.14,9604.35
44.2,9760.38
44.26,9032.25
44.32,9500.33
44.38,10280.5
44.44,9205.61
44.5,10089.8
44.56,9847.06
44.62,9170.94
44.68,9257.62
44.74,8893.56
44.8,9066.92
44.86,9101.59
44.92,9483
44.98,9118.93
45.04,9535
45.1,9153.6
45.16,9413.65
45.22,9136.27
45.28,7922.72
45.34,8789.54
45.4,8893.56
45.46,8928.23
45.52,9344.3
45.58,8616.18
45.64,9101.59
45.7,8858.89
45.76,8806.88
45.82,8720.19
45.88,8910.89
45.94,9222.95
46,8841.55
46.06,8581.5
46.12,9136.27
46.18,8442.81
46.24,7888.05
46.3,8633.51
46.36,8824.21
46.42,8789.54
46.48,8737.53
46.54,8668.19
46.6,8616.18
46.66,8165.43
46.72,8252.11
46.78,8668.19
46.84,9032.25
46.9,8512.16
46.96,9032.25
47.02,8529.49
47.08,8096.08
47.14,7766.69
47.2,8928.23
47.26,8754.87
47.32,8980.24
47.38,8772.2
47.44,9274.96
47.5,8962.9
47.56,8754.87
47.62,8668.19
47.68,8234.78
47.74,8650.85
47.8,9049.58
47.86,8754.87
47.92,7784.03
47.98,8876.22
48.04,8702.86
48.1,7957.39
48.16,7905.38
48.22,8546.83
48.28,8425.48
48.34,8685.52
48.4,8286.79
48.46,8338.79
48.52,7523.98
48.58,8789.54
48.64,7853.38
48.7,8113.42
48.76,8200.1
48.82,7818.7
48.88,7888.05
48.94,7905.38
49,8113.42
49.06,8425.48
49.12,7662.68
49.18,7680.01
49.24,8512.16
49.3,9483
49.36,9274.96
49.42,9535
49.48,9604.35
49.54,10471.2
49.6,10263.1
49.66,9378.98
49.72,9465.66
49.78,9118.93
49.84,8772.2
49.9,9049.58
49.96,8009.4
50.02,8546.83
50.08,8806.88
50.14,8668.19
50.2,8390.8
50.26,8148.09
50.32,7125.25
50.38,8078.75
50.44,7853.38
50.5,7784.03
50.56,7628
50.62,6882.54
50.68,7575.99
50.74,7211.93
50.8,7870.71
50.86,7714.69
50.92,7610.67
50.98,7575.99
51.04,6986.56
51.1,8200.1
51.16,7905.38
51.22,8113.42
51.28,7333.28
51.34,6847.87
51.4,7610.67
51.46,8113.42
51.52,7558.66
51.58,7749.36
51.64,7888.05
51.7,7506.65
51.76,7367.96
51.82,7367.96
51.88,7125.25
51.94,6951.88
52,7090.58
52.06,6778.52
52.12,7610.67
52.18,6813.19
52.24,7437.3
52.3,6778.52
52.36,7107.91
52.42,7125.25
52.48,6691.84
52.54,6882.54
52.6,6761.18
52.66,6449.13
52.72,7333.28
52.78,6501.14
52.84,6483.8
52.9,6743.85
52.96,6431.79
53.02,6691.84
53.08,6709.18
53.14,5859.69
53.2,6449.13
53.26,5703.67
53.32,7038.57
53.38,6466.47
53.44,6067.73
53.5,7003.89
53.56,6587.82
53.62,6050.39
53.68,6206.42
53.74,6258.43
53.8,6015.72
53.86,6189.08
53.92,6345.11
53.98,6570.48
54.04,6067.73
54.1,6015.72
54.16,6397.12
54.22,6275.77
54.28,6431.79
54.34,5929.04
54.4,6397.12
54.46,5963.71
54.52,5686.33
54.58,5807.68
54.64,5807.68
54.7,5894.37
54.76,6223.76
54.82,5790.35
54.88,5703.67
54.94,6345.11
55,6102.4
55.06,5877.03
55.12,5374.27
55.18,5096.89
55.24,6587.82
55.3,6085.07
55.36,5478.29
55.42,5773.01
55.48,5114.23
55.54,5877.03
55.6,5339.6
55.66,5790.35
55.72,5391.61
55.78,5183.57
55.84,5270.26
55.9,5443.62
55.96,4802.17
56.02,5235.58
56.08,5079.56
56.14,5547.64
56.2,5408.95
56.26,5512.97
56.32,6067.73
56.38,5616.98
56.44,5981.05
56.5,5148.9
56.56,5512.97
56.62,4906.19
56.68,5668.99
56.74,5096.89
56.8,5044.88
56.86,5148.9
56.92,4715.49
56.98,5252.92
57.04,5010.21
57.1,5166.24
57.16,4524.79
57.22,4958.2
57.28,5148.9
57.34,5148.9
57.4,5270.26
57.46,4940.87
57.52,5738.34
57.58,5131.57
57.64,5200.91
57.7,5426.28
57.76,4403.44
57.82,5044.88
57.88,4507.46
57.94,4715.49
58,4420.77
58.06,4680.82
58.12,5252.92
58.18,5270.26
58.24,4802.17
58.3,5218.25
58.36,4975.54
58.42,4594.14
58.48,5027.55
58.54,5096.89
58.6,4836.85
58.66,4958.2
58.72,4507.46
58.78,4784.84
58.84,4767.5
58.9,3970.03
58.96,5131.57
59.02,4698.16
59.08,4819.51
59.14,4819.51
59.2,4715.49
59.26,4680.82
59.32,4160.73
59.38,5114.23
59.44,5183.57
59.5,4784.84
59.56,4836.85
59.62,4524.79
59.68,5287.59
59.74,4784.84
59.8,4351.43
59.86,4854.18
59.92,4715.49
59.98,5183.57
60.04,4784.84
60.1,4628.81
60.16,4004.7
60.22,3848.67
60.28,5010.21
60.34,4195.4
60.4,4160.73
60.46,4646.15
60.52,4767.5
60.58,4836.85
60.64,4767.5
60.7,4386.1
60.76,4975.54
60.82,4784.84
60.88,4438.11
60.94,4472.78
61,4715.49
61.06,4420.77
61.12,4646.15
61.18,5114.23
61.24,4455.45
61.3,4316.76
61.36,3987.37
61.42,4160.73
61.48,4507.46
61.54,4542.13
61.6,4316.76
61.66,4351.43
61.72,4524.79
61.78,4888.86
61.84,4126.06
61.9,4611.47
61.96,4230.07
62.02,4195.4
62.08,4403.44
62.14,4126.06
62.2,4594.14
62.26,4992.87
62.32,4802.17
62.38,4715.49
62.44,4750.17
62.5,4143.39
62.56,4160.73
62.62,4524.79
62.68,4178.07
62.74,4802.17
62.8,4403.44
62.86,4212.74
62.92,4819.51
62.98,3796.67
63.04,4455.45
63.1,4403.44
63.16,4698.16
63.22,4108.72
63.28,3935.36
63.34,4074.05
63.4,4559.47
63.46,3831.34
63.52,4663.48
63.58,4264.75
63.64,4334.09
63.7,4247.41
63.76,3848.67
63.82,3900.68
63.88,4368.77
63.94,4542.13
64,3571.29
64.06,4039.37
64.12,4420.77
64.18,4368.77
64.24,4143.39
64.3,3900.68
64.36,4316.76
64.42,4160.73
64.48,4334.09
64.54,4230.07
64.6,4490.12
64.66,4628.81
64.72,3779.33
64.78,4091.38
64.84,4316.76
64.9,4178.07
64.96,3952.69
65.02,4403.44
65.08,4160.73
65.14,3866.01
65.2,4195.4
65.26,4594.14
65.32,3900.68
65.38,4420.77
65.44,4212.74
65.5,3866.01
65.56,3796.67
65.62,4438.11
65.68,4282.08
65.74,4143.39
65.8,3900.68
65.86,3744.66
65.92,4282.08
65.98,4316.76
66.04,3866.01
66.1,4039.37
66.16,4039.37
66.22,3848.67
66.28,4143.39
66.34,4264.75
66.4,4230.07
66.46,4074.05
66.52,3467.27
66.58,3883.35
66.64,3779.33
66.7,4022.04
66.76,4074.05
66.82,4420.77
66.88,3293.91
66.94,3814
67,3709.98
67.06,4091.38
67.12,3727.32
67.18,4004.7
67.24,4056.71
67.3,3814
67.36,4074.05
67.42,3918.02
67.48,3571.29
67.54,3536.62
67.6,3779.33
67.66,3484.61
67.72,3744.66
67.78,4316.76
67.84,3796.67
67.9,3848.67
67.96,3328.58
68.02,3796.67
68.08,3675.31
68.14,3744.66
68.2,3501.95
68.26,3657.97
68.32,3640.64
68.38,4022.04
68.44,3692.65
68.5,3692.65
68.56,3744.66
68.62,4230.07
68.68,4056.71
68.74,3918.02
68.8,3970.03
68.86,3657.97
68.92,3709.98
68.98,4178.07
69.04,3727.32
69.1,3779.33
69.16,3952.69
69.22,3605.97
69.28,3987.37
69.34,3761.99
69.4,3900.68
69.46,4126.06
69.52,3831.34
69.58,3692.65
69.64,3536.62
69.7,3675.31
69.76,3484.61
69.82,3883.35
69.88,3276.57
69.94,3866.01
70,3484.61
70.06,4126.06
70.12,3519.28
70.18,3796.67
70.24,3727.32
70.3,3640.64
70.36,3779.33
70.42,3519.28
70.48,3467.27
70.54,3883.35
70.6,4091.38
70.66,3744.66
70.72,3207.23
70.78,3484.61
70.84,3484.61
70.9,3345.92
70.96,3831.34
71.02,3779.33
71.08,3588.63
71.14,3623.3
71.2,3709.98
71.26,3415.26
71.32,3415.26
71.38,3814
71.44,3519.28
71.5,3363.26
71.56,3536.62
71.62,3623.3
71.68,3657.97
71.74,3796.67
71.8,3692.65
71.86,3883.35
71.92,3831.34
71.98,3016.53
72.04,3692.65
72.1,3588.63
72.16,3137.88
72.22,3640.64
72.28,3467.27
72.34,3588.63
72.4,3744.66
72.46,3900.68
72.52,3692.65
72.58,3709.98
72.64,3501.95
72.7,3519.28
72.76,3224.56
72.82,3120.55
72.88,3536.62
72.94,3293.91
73,3952.69
73.06,3831.34
73.12,3363.26
73.18,3640.64
73.24,3970.03
73.3,3814
73.36,3536.62
73.42,3588.63
73.48,3380.59
73.54,3727.32
73.6,3224.56
73.66,3848.67
73.72,3987.37
73.78,3657.97
73.84,3605.97
73.9,3536.62
73.96,3553.96
74.02,3536.62
74.08,4126.06
74.14,3831.34
74.2,4420.77
74.26,4282.08
74.32,3935.36
74.38,3692.65
74.44,3987.37
74.5,3727.32
74.56,4472.78
74.62,3727.32
74.68,4282.08
74.74,3484.61
74.8,3814
74.86,3883.35
74.92,4178.07
74.98,4004.7
75.04,3952.69
75.1,4074.05
75.16,4386.1
75.22,4282.08
75.28,4143.39
75.34,4472.78
75.4,3970.03
75.46,4368.77
75.52,4351.43
75.58,4091.38
75.64,4351.43
75.7,4368.77
75.76,4351.43
75.82,4143.39
75.88,4819.51
75.94,5859.69
76,8477.49
76.06,6379.78
76.12,6137.08
76.18,7922.72
76.24,6275.77
76.3,6951.88
76.36,8772.2
76.42,6275.77
76.48,6813.19
76.54,7732.02
76.6,7194.59
76.66,5859.69
76.72,6015.72
76.78,5547.64
76.84,4888.86
76.9,4559.47
76.96,4472.78
77.02,4611.47
77.08,3952.69
77.14,4576.8
77.2,4091.38
77.26,3952.69
77.32,4195.4
77.38,3987.37
77.44,4351.43
77.5,4282.08
77.56,3744.66
77.62,3675.31
77.68,3831.34
77.74,3866.01
77.8,4178.07
77.86,4351.43
77.92,4212.74
77.98,3796.67
78.04,3727.32
78.1,4819.51
78.16,4299.42
78.22,4438.11
78.28,3900.68
78.34,3987.37
78.4,4299.42
78.46,4351.43
78.52,4351.43
78.58,4680.82
78.64,4368.77
78.7,3970.03
78.76,4403.44
78.82,4074.05
78.88,4247.41
78.94,3761.99
79,4316.76
79.06,4004.7
79.12,3657.97
79.18,4195.4
79.24,4091.38
79.3,3848.67
79.36,4178.07
79.42,4212.74
79.48,3831.34
79.54,4282.08
79.6,4212.74
79.66,3761.99
79.72,4160.73
79.78,4108.72
79.84,4386.1
79.9,4056.71
79.96,4264.75
80.02,4056.71
80.08,4212.74
80.14,4316.76
80.2,3657.97
80.26,4091.38
80.32,4559.47
80.38,3970.03
80.44,4056.71
80.5,3814
80.56,3640.64
80.62,3900.68
80.68,3970.03
80.74,3727.32
80.8,3987.37
80.86,4334.09
80.92,3935.36
80.98,3970.03
81.04,4195.4
81.1,4004.7
81.16,4074.05
81.22,3883.35
81.28,4212.74
81.34,4230.07
81.4,4160.73
81.46,3848.67
81.52,3831.34
81.58,4247.41
81.64,4282.08
81.7,4264.75
81.76,4022.04
81.82,4282.08
81.88,4126.06
81.94,3952.69
82,4022.04
82.06,3952.69
82.12,4230.07
82.18,3935.36
82.24,4143.39
82.3,3866.01
82.36,3814
82.42,3814
82.48,3935.36
82.54,4386.1
82.6,4126.06
82.66,4195.4
82.72,4386.1
82.78,3848.67
82.84,3970.03
82.9,4247.41
82.96,4039.37
83.02,3415.26
83.08,3761.99
83.14,4091.38
83.2,4108.72
83.26,3415.26
83.32,4230.07
83.38,3935.36
83.44,3848.67
83.5,3970.03
83.56,3501.95
83.62,3935.36
83.68,3675.31
83.74,3918.02
83.8,4004.7
83.86,3814
83.92,3796.67
83.98,3761.99
84.04,3432.6
84.1,4438.11
84.16,4056.71
84.22,3692.65
84.28,3883.35
84.34,3761.99
84.4,3952.69
84.46,3935.36
84.52,3796.67
84.58,3831.34
84.64,3553.96
84.7,3727.32
84.76,3363.26
84.82,3831.34
84.88,3293.91
84.94,3293.91
85,3675.31
85.06,3345.92
85.12,3380.59
85.18,3918.02
85.24,3779.33
85.3,4056.71
85.36,3657.97
85.42,3657.97
85.48,3831.34
85.54,3415.26
85.6,3848.67
85.66,3345.92
85.72,3866.01
85.78,3397.93
85.84,3727.32
85.9,3293.91
85.96,3744.66
86.02,3640.64
86.08,3640.64
86.14,3380.59
86.2,3918.02
86.26,3432.6
86.32,3866.01
86.38,3657.97
86.44,3640.64
86.5,3970.03
86.56,3727.32
86.62,3553.96
86.68,3900.68
86.74,3727.32
86.8,3415.26
86.86,3415.26
86.92,3571.29
86.98,3848.67
87.04,3588.63
87.1,3796.67
87.16,3675.31
87.22,3571.29
87.28,3501.95
87.34,3085.87
87.4,3345.92
87.46,3155.22
87.52,3588.63
87.58,3449.94
87.64,3709.98
87.7,3415.26
87.76,3935.36
87.82,3831.34
87.88,3415.26
87.94,3120.55
88,3640.64
88.06,3432.6
88.12,3779.33
88.18,3900.68
88.24,3484.61
88.3,2999.19
88.36,3605.97
88.42,3657.97
88.48,3363.26
88.54,3033.86
88.6,3675.31
88.66,3068.54
88.72,3259.24
88.78,3415.26
88.84,3328.58
88.9,3293.91
88.96,3692.65
89.02,3623.3
89.08,3484.61
89.14,3293.91
89.2,3207.23
89.26,3068.54
89.32,3640.64
89.38,3519.28
89.44,3519.28
89.5,3380.59
89.56,3519.28
89.62,3363.26
89.68,3501.95
89.74,3033.86
89.8,3259.24
89.86,3380.59
89.92,3484.61
89.98,3397.93
90,4282.08