File: program/database/experiments/MU/battery/922(806)/data/02.txt
Sept. 23, 2021   22:41:55
Chronopotentiometry
File: c:\users\polymer\desktop\data_cv\2020_m1\umeki\210923\02c.txt
Data Source:  Experiment
Instrument Model:  CHI660C
Header:
Note:

Cathodic Current (A) = 2.36e-4
Anodic Current (A) = 2.36e-4
Init P/N = N
Data Storage Interval (s) = 0.1
High E Limit (V) = 2.5
Low E Limit (V) = 1
Cathodic Time (s) = 10
Anodic Time (s) = 10
Current Switching Polarity = Potential
Segment = 3

Time/sec, Potential/V

1.00000e-1, 1.73463e+0
6.40000e+0, 1.72212e+0
1.27000e+1, 1.71477e+0
1.90000e+1, 1.70754e+0
2.53001e+1, 1.70018e+0
3.16001e+1, 1.69260e+0
3.79000e+1, 1.68412e+0
4.41999e+1, 1.67533e+0
5.04998e+1, 1.66568e+0
5.67997e+1, 1.65484e+0
6.30996e+1, 1.64291e+0
6.93995e+1, 1.62932e+0
7.56994e+1, 1.61353e+0
8.19993e+1, 1.59495e+0
8.82992e+1, 1.57161e+0
9.45991e+1, 1.54206e+0
1.00899e+2, 1.50193e+0
1.07199e+2, 1.44192e+0
1.13499e+2, 1.34565e+0
1.19799e+2, 1.19911e+0
1.26099e+2, 1.01472e+0
1.32399e+2, 1.73524e+0
1.38699e+2, 1.75486e+0
1.45000e+2, 1.76868e+0
1.51300e+2, 1.77992e+0
1.57600e+2, 1.78963e+0
1.63901e+2, 1.79725e+0
1.70201e+2, 1.80443e+0
1.76502e+2, 1.81071e+0
1.82802e+2, 1.81651e+0
1.89102e+2, 1.82192e+0
1.95403e+2, 1.82679e+0
2.01703e+2, 1.83130e+0
2.08003e+2, 1.83548e+0
2.14304e+2, 1.83945e+0
2.20604e+2, 1.84338e+0
2.26905e+2, 1.84670e+0
2.33205e+2, 1.85010e+0
2.39505e+2, 1.85354e+0
2.45806e+2, 1.85628e+0
2.52106e+2, 1.85904e+0
2.58407e+2, 1.86183e+0
2.64707e+2, 1.86445e+0
2.71007e+2, 1.86704e+0
2.77308e+2, 1.86933e+0
2.83608e+2, 1.87160e+0
2.89908e+2, 1.87382e+0
2.96209e+2, 1.87589e+0
3.02509e+2, 1.87813e+0
3.08810e+2, 1.88004e+0
3.15110e+2, 1.88188e+0
3.21410e+2, 1.88375e+0
3.27711e+2, 1.88555e+0
3.34011e+2, 1.88754e+0
3.40312e+2, 1.88897e+0
3.46612e+2, 1.89055e+0
3.52912e+2, 1.89238e+0
3.59213e+2, 1.89370e+0
3.65513e+2, 1.89521e+0
3.71813e+2, 1.89662e+0
3.78114e+2, 1.89798e+0
3.84414e+2, 1.89942e+0
3.90715e+2, 1.90072e+0
3.97015e+2, 1.90227e+0
4.03315e+2, 1.90326e+0
4.09616e+2, 1.90459e+0
4.15916e+2, 1.90660e+0
4.22217e+2, 1.90741e+0
4.28517e+2, 1.90797e+0
4.34817e+2, 1.90905e+0
4.41118e+2, 1.91000e+0
4.47418e+2, 1.91102e+0
4.53718e+2, 1.91223e+0
4.60019e+2, 1.91262e+0
4.66319e+2, 1.91353e+0
4.72620e+2, 1.91466e+0
4.78920e+2, 1.91506e+0
4.85220e+2, 1.91571e+0
4.91521e+2, 1.91604e+0
4.97821e+2, 1.91671e+0
5.04122e+2, 1.91713e+0
5.10422e+2, 1.91718e+0
5.16721e+2, 1.91724e+0
5.23019e+2, 1.91747e+0
5.29318e+2, 1.91781e+0
5.35616e+2, 1.91813e+0
5.41915e+2, 1.91833e+0
5.48213e+2, 1.91846e+0
5.54512e+2, 1.91860e+0
5.60810e+2, 1.91880e+0
5.67109e+2, 1.91904e+0
5.73407e+2, 1.91929e+0
5.79706e+2, 1.91946e+0
5.86004e+2, 1.91958e+0
5.92302e+2, 1.91965e+0
5.98601e+2, 1.91974e+0
6.04899e+2, 1.91985e+0
6.11198e+2, 1.91998e+0
6.17496e+2, 1.92013e+0
6.23795e+2, 1.92028e+0
6.30093e+2, 1.92044e+0
6.36392e+2, 1.92057e+0
6.42690e+2, 1.92068e+0
6.48989e+2, 1.92078e+0
6.55287e+2, 1.92087e+0
6.61586e+2, 1.92097e+0
6.67884e+2, 1.92108e+0
6.74182e+2, 1.92123e+0
6.80481e+2, 1.92138e+0
6.86779e+2, 1.92154e+0
6.93078e+2, 1.92170e+0
6.99376e+2, 1.92183e+0
7.05675e+2, 1.92192e+0
7.11973e+2, 1.92198e+0
7.18272e+2, 1.92202e+0
7.24570e+2, 1.92205e+0
7.30869e+2, 1.92207e+0
7.37167e+2, 1.92209e+0
7.43466e+2, 1.92212e+0
7.49764e+2, 1.92215e+0
7.56062e+2, 1.92220e+0
7.62361e+2, 1.92225e+0
7.68659e+2, 1.92232e+0
7.74958e+2, 1.92239e+0
7.81256e+2, 1.92245e+0
7.87555e+2, 1.92253e+0
7.93853e+2, 1.92261e+0
8.00152e+2, 1.92269e+0
8.06450e+2, 1.92277e+0
8.12749e+2, 1.92285e+0
8.19047e+2, 1.92293e+0
8.25346e+2, 1.92299e+0
8.31644e+2, 1.92307e+0
8.37942e+2, 1.92312e+0
8.44241e+2, 1.92318e+0
8.50539e+2, 1.92322e+0
8.56838e+2, 1.92328e+0
8.63136e+2, 1.92333e+0
8.69435e+2, 1.92337e+0
8.75733e+2, 1.92342e+0
8.82032e+2, 1.92347e+0
8.88330e+2, 1.92353e+0
8.94629e+2, 1.92360e+0
9.00927e+2, 1.92366e+0
9.07226e+2, 1.92373e+0
9.13524e+2, 1.92380e+0
9.19822e+2, 1.92387e+0
9.26121e+2, 1.92395e+0
9.32419e+2, 1.92402e+0
9.38718e+2, 1.92408e+0
9.45016e+2, 1.92414e+0
9.51315e+2, 1.92421e+0
9.57613e+2, 1.92427e+0
9.63912e+2, 1.92432e+0
9.70210e+2, 1.92436e+0
9.76509e+2, 1.92440e+0
9.82807e+2, 1.92443e+0
9.89106e+2, 1.92446e+0
9.95404e+2, 1.92448e+0
1.00170e+3, 1.92450e+0
1.00800e+3, 1.92453e+0
1.01430e+3, 1.92455e+0
1.02060e+3, 1.92458e+0
1.02690e+3, 1.92461e+0
1.03319e+3, 1.92463e+0
1.03949e+3, 1.92465e+0
1.04579e+3, 1.92469e+0
1.05209e+3, 1.92473e+0
1.05839e+3, 1.92477e+0
1.06469e+3, 1.92482e+0
1.07099e+3, 1.92486e+0
1.07728e+3, 1.92490e+0
1.08358e+3, 1.92494e+0
1.08988e+3, 1.92499e+0
1.09618e+3, 1.92503e+0
1.10248e+3, 1.92509e+0
1.10878e+3, 1.92515e+0
1.11507e+3, 1.92520e+0
1.12137e+3, 1.92525e+0
1.12767e+3, 1.92532e+0
1.13397e+3, 1.92541e+0
1.14027e+3, 1.92549e+0
1.14657e+3, 1.92556e+0
1.15287e+3, 1.92564e+0
1.15916e+3, 1.92573e+0
1.16546e+3, 1.92584e+0
1.17176e+3, 1.92590e+0
1.17806e+3, 1.92601e+0
1.18436e+3, 1.92610e+0
1.19066e+3, 1.92618e+0
1.19695e+3, 1.92628e+0
1.20325e+3, 1.92636e+0
1.20955e+3, 1.92644e+0
1.21585e+3, 1.92651e+0
1.22215e+3, 1.92657e+0
1.22845e+3, 1.92663e+0
1.23475e+3, 1.92667e+0
1.24104e+3, 1.92672e+0
1.24734e+3, 1.92676e+0
1.25364e+3, 1.92680e+0
1.25994e+3, 1.92682e+0
1.26624e+3, 1.92685e+0
1.27254e+3, 1.92686e+0
1.27883e+3, 1.92688e+0
1.28513e+3, 1.92690e+0
1.29143e+3, 1.92690e+0
1.29773e+3, 1.92691e+0
1.30403e+3, 1.92691e+0
1.31033e+3, 1.92692e+0
1.31663e+3, 1.92692e+0
1.32292e+3, 1.92693e+0
1.32922e+3, 1.92693e+0
1.33552e+3, 1.92693e+0
1.34182e+3, 1.92694e+0
1.34812e+3, 1.92694e+0
1.35442e+3, 1.92694e+0
1.36071e+3, 1.92694e+0
1.36701e+3, 1.92694e+0
1.37331e+3, 1.92694e+0
1.37961e+3, 1.92694e+0
1.38591e+3, 1.92694e+0
1.39221e+3, 1.92694e+0
1.39851e+3, 1.92694e+0
1.40480e+3, 1.92694e+0
1.41110e+3, 1.92694e+0
1.41740e+3, 1.92694e+0
1.42370e+3, 1.92695e+0
1.43000e+3, 1.92695e+0
1.43630e+3, 1.92695e+0
1.44259e+3, 1.92695e+0
1.44889e+3, 1.92696e+0
1.45519e+3, 1.92696e+0
1.46149e+3, 1.92697e+0
1.46779e+3, 1.92697e+0
1.47409e+3, 1.92698e+0
1.48039e+3, 1.92699e+0
1.48668e+3, 1.92700e+0
1.49298e+3, 1.92701e+0
1.49928e+3, 1.92702e+0
1.50558e+3, 1.92704e+0
1.51188e+3, 1.92705e+0
1.51818e+3, 1.92708e+0
1.52447e+3, 1.92710e+0
1.53077e+3, 1.92712e+0
1.53707e+3, 1.92714e+0
1.54337e+3, 1.92717e+0
1.54967e+3, 1.92719e+0
1.55597e+3, 1.92722e+0
1.56227e+3, 1.92725e+0
1.56856e+3, 1.92728e+0
1.57486e+3, 1.92732e+0
1.58116e+3, 1.92736e+0
1.58746e+3, 1.92739e+0
1.59376e+3, 1.92743e+0
1.60006e+3, 1.92746e+0
1.60635e+3, 1.92751e+0
1.61265e+3, 1.92755e+0
1.61895e+3, 1.92758e+0
1.62525e+3, 1.92763e+0
1.63155e+3, 1.92767e+0
1.63785e+3, 1.92770e+0
1.64415e+3, 1.92775e+0
1.65044e+3, 1.92780e+0
1.65674e+3, 1.92783e+0
1.66304e+3, 1.92787e+0
1.66934e+3, 1.92792e+0
1.67564e+3, 1.92796e+0
1.68194e+3, 1.92799e+0
1.68823e+3, 1.92803e+0
1.69453e+3, 1.92806e+0
1.70083e+3, 1.92809e+0
1.70713e+3, 1.92812e+0
1.71343e+3, 1.92816e+0
1.71973e+3, 1.92818e+0
1.72603e+3, 1.92821e+0
1.73232e+3, 1.92824e+0
1.73862e+3, 1.92827e+0
1.74492e+3, 1.92831e+0
1.75122e+3, 1.92834e+0
1.75752e+3, 1.92839e+0
1.76382e+3, 1.92843e+0
1.77011e+3, 1.92850e+0
1.77641e+3, 1.92854e+0
1.78271e+3, 1.92860e+0
1.78901e+3, 1.92866e+0
1.79531e+3, 1.92873e+0
1.80161e+3, 1.92881e+0
1.80791e+3, 1.92888e+0
1.81420e+3, 1.92894e+0
1.82050e+3, 1.92901e+0
1.82680e+3, 1.92907e+0
1.83310e+3, 1.92913e+0
1.83940e+3, 1.92919e+0
1.84570e+3, 1.92924e+0
1.85199e+3, 1.92928e+0
1.85829e+3, 1.92932e+0
1.86459e+3, 1.92935e+0
1.87089e+3, 1.92938e+0
1.87719e+3, 1.92940e+0
1.88349e+3, 1.92943e+0
1.88979e+3, 1.92946e+0
1.89608e+3, 1.92949e+0
1.90238e+3, 1.92953e+0
1.90868e+3, 1.92957e+0
1.91498e+3, 1.92963e+0
1.92128e+3, 1.92968e+0
1.92758e+3, 1.92976e+0
1.93387e+3, 1.92984e+0
1.94017e+3, 1.92991e+0
1.94647e+3, 1.92999e+0
1.95277e+3, 1.93008e+0
1.95907e+3, 1.93016e+0
1.96537e+3, 1.93025e+0
1.97167e+3, 1.93032e+0
1.97796e+3, 1.93040e+0
1.98426e+3, 1.93046e+0
1.99056e+3, 1.93053e+0
1.99686e+3, 1.93058e+0
2.00316e+3, 1.93065e+0
2.00946e+3, 1.93072e+0
2.01575e+3, 1.93081e+0
2.02205e+3, 1.93091e+0
2.02835e+3, 1.93104e+0
2.03465e+3, 1.93119e+0
2.04095e+3, 1.93131e+0
2.04725e+3, 1.93145e+0
2.05355e+3, 1.93157e+0
2.05986e+3, 1.93165e+0
2.06616e+3, 1.93173e+0
2.07247e+3, 1.93178e+0
2.07878e+3, 1.93180e+0
2.08508e+3, 1.93183e+0
2.09139e+3, 1.93185e+0
2.09770e+3, 1.93187e+0
2.10400e+3, 1.93191e+0
2.11031e+3, 1.93196e+0
2.11661e+3, 1.93203e+0
2.12292e+3, 1.93211e+0
2.12923e+3, 1.93220e+0
2.13553e+3, 1.93231e+0
2.14184e+3, 1.93240e+0
2.14814e+3, 1.93251e+0
2.15445e+3, 1.93263e+0
2.16076e+3, 1.93274e+0
2.16706e+3, 1.93284e+0
2.17337e+3, 1.93293e+0
2.17968e+3, 1.93301e+0
2.18598e+3, 1.93308e+0
2.19229e+3, 1.93316e+0
2.19859e+3, 1.93326e+0
2.20490e+3, 1.93338e+0
2.21121e+3, 1.93352e+0
2.21751e+3, 1.93368e+0
2.22382e+3, 1.93382e+0
2.23012e+3, 1.93396e+0
2.23643e+3, 1.93408e+0
2.24274e+3, 1.93417e+0
2.24904e+3, 1.93424e+0
2.25535e+3, 1.93429e+0
2.26166e+3, 1.93435e+0
2.26796e+3, 1.93444e+0
2.27427e+3, 1.93454e+0
2.28057e+3, 1.93465e+0
2.28688e+3, 1.93481e+0
2.29319e+3, 1.93495e+0
2.29949e+3, 1.93509e+0
2.30580e+3, 1.93523e+0
2.31210e+3, 1.93537e+0
2.31841e+3, 1.93547e+0
2.32472e+3, 1.93558e+0
2.33102e+3, 1.93572e+0
2.33733e+3, 1.93591e+0
2.34364e+3, 1.93613e+0
2.34994e+3, 1.93634e+0
2.35625e+3, 1.93651e+0
2.36255e+3, 1.93661e+0
2.36886e+3, 1.93668e+0
2.37517e+3, 1.93671e+0
2.38147e+3, 1.93675e+0
2.38778e+3, 1.93681e+0
2.39408e+3, 1.93690e+0
2.40039e+3, 1.93703e+0
2.40670e+3, 1.93718e+0
2.41300e+3, 1.93732e+0
2.41931e+3, 1.93747e+0
2.42562e+3, 1.93763e+0
2.43192e+3, 1.93777e+0
2.43823e+3, 1.93790e+0
2.44453e+3, 1.93801e+0
2.45084e+3, 1.93815e+0
2.45715e+3, 1.93831e+0
2.46345e+3, 1.93850e+0
2.46976e+3, 1.93869e+0
2.47606e+3, 1.93888e+0
2.48237e+3, 1.93901e+0
2.48868e+3, 1.93911e+0
2.49498e+3, 1.93918e+0
2.50129e+3, 1.93926e+0
2.50760e+3, 1.93937e+0
2.51390e+3, 1.93951e+0
2.52021e+3, 1.93967e+0
2.52651e+3, 1.93984e+0
2.53282e+3, 1.94002e+0
2.53913e+3, 1.94018e+0
2.54543e+3, 1.94033e+0
2.55174e+3, 1.94047e+0
2.55804e+3, 1.94069e+0
2.56435e+3, 1.94093e+0
2.57066e+3, 1.94119e+0
2.57696e+3, 1.94140e+0
2.58327e+3, 1.94152e+0
2.58958e+3, 1.94158e+0
2.59588e+3, 1.94162e+0
2.60219e+3, 1.94169e+0
2.60849e+3, 1.94180e+0
2.61480e+3, 1.94195e+0
2.62111e+3, 1.94213e+0
2.62741e+3, 1.94230e+0
2.63372e+3, 1.94247e+0
2.64002e+3, 1.94265e+0
2.64633e+3, 1.94279e+0
2.65264e+3, 1.94291e+0
2.65894e+3, 1.94306e+0
2.66525e+3, 1.94324e+0
2.67156e+3, 1.94344e+0
2.67786e+3, 1.94366e+0
2.68417e+3, 1.94385e+0
2.69047e+3, 1.94397e+0
2.69678e+3, 1.94406e+0
2.70309e+3, 1.94415e+0
2.70939e+3, 1.94427e+0
2.71570e+3, 1.94444e+0
2.72200e+3, 1.94465e+0
2.72831e+3, 1.94487e+0
2.73462e+3, 1.94519e+0
2.74092e+3, 1.94561e+0
2.74723e+3, 1.94598e+0
2.75354e+3, 1.94626e+0
2.75984e+3, 1.94639e+0
2.76615e+3, 1.94645e+0
2.77245e+3, 1.94647e+0
2.77876e+3, 1.94647e+0
2.78507e+3, 1.94649e+0
2.79137e+3, 1.94653e+0
2.79768e+3, 1.94662e+0
2.80398e+3, 1.94677e+0
2.81029e+3, 1.94694e+0
2.81660e+3, 1.94714e+0
2.82290e+3, 1.94734e+0
2.82921e+3, 1.94753e+0
2.83552e+3, 1.94768e+0
2.84182e+3, 1.94783e+0
2.84813e+3, 1.94800e+0
2.85443e+3, 1.94823e+0
2.86074e+3, 1.94849e+0
2.86705e+3, 1.94871e+0
2.87335e+3, 1.94885e+0
2.87966e+3, 1.94894e+0
2.88596e+3, 1.94905e+0
2.89227e+3, 1.94920e+0
2.89858e+3, 1.94937e+0
2.90488e+3, 1.94958e+0
2.91119e+3, 1.94978e+0
2.91750e+3, 1.94997e+0
2.92380e+3, 1.95012e+0
2.93011e+3, 1.95026e+0
2.93641e+3, 1.95047e+0
2.94272e+3, 1.95073e+0
2.94903e+3, 1.95100e+0
2.95533e+3, 1.95121e+0
2.96164e+3, 1.95133e+0
2.96794e+3, 1.95139e+0
2.97425e+3, 1.95147e+0
2.98056e+3, 1.95162e+0
2.98686e+3, 1.95179e+0
2.99317e+3, 1.95199e+0
2.99948e+3, 1.95219e+0
3.00578e+3, 1.95239e+0
3.01209e+3, 1.95255e+0
3.01839e+3, 1.95269e+0
3.02470e+3, 1.95288e+0
3.03101e+3, 1.95311e+0
3.03731e+3, 1.95338e+0
3.04362e+3, 1.95360e+0
3.04992e+3, 1.95376e+0
3.05623e+3, 1.95386e+0
3.06254e+3, 1.95398e+0
3.06884e+3, 1.95415e+0
3.07515e+3, 1.95434e+0
3.08146e+3, 1.95456e+0
3.08776e+3, 1.95476e+0
3.09407e+3, 1.95494e+0
3.10037e+3, 1.95509e+0
3.10668e+3, 1.95531e+0
3.11299e+3, 1.95557e+0
3.11929e+3, 1.95588e+0
3.12560e+3, 1.95611e+0
3.13190e+3, 1.95622e+0
3.13821e+3, 1.95629e+0
3.14452e+3, 1.95640e+0
3.15082e+3, 1.95656e+0
3.15713e+3, 1.95676e+0
3.16344e+3, 1.95696e+0
3.16974e+3, 1.95717e+0
3.17605e+3, 1.95736e+0
3.18235e+3, 1.95751e+0
3.18866e+3, 1.95768e+0
3.19497e+3, 1.95792e+0
3.20127e+3, 1.95819e+0
3.20758e+3, 1.95844e+0
3.21388e+3, 1.95861e+0
3.22019e+3, 1.95873e+0
3.22650e+3, 1.95886e+0
3.23280e+3, 1.95904e+0
3.23911e+3, 1.95924e+0
3.24542e+3, 1.95946e+0
3.25172e+3, 1.95967e+0
3.25803e+3, 1.95985e+0
3.26433e+3, 1.96001e+0
3.27064e+3, 1.96023e+0
3.27695e+3, 1.96051e+0
3.28325e+3, 1.96082e+0
3.28956e+3, 1.96102e+0
3.29586e+3, 1.96112e+0
3.30217e+3, 1.96119e+0
3.30848e+3, 1.96133e+0
3.31478e+3, 1.96151e+0
3.32109e+3, 1.96172e+0
3.32740e+3, 1.96195e+0
3.33370e+3, 1.96216e+0
3.34001e+3, 1.96232e+0
3.34631e+3, 1.96249e+0
3.35262e+3, 1.96269e+0
3.35893e+3, 1.96293e+0
3.36523e+3, 1.96319e+0
3.37154e+3, 1.96342e+0
3.37784e+3, 1.96358e+0
3.38415e+3, 1.96371e+0
3.39046e+3, 1.96390e+0
3.39676e+3, 1.96411e+0
3.40307e+3, 1.96433e+0
3.40938e+3, 1.96457e+0
3.41568e+3, 1.96479e+0
3.42199e+3, 1.96507e+0
3.42829e+3, 1.96541e+0
3.43460e+3, 1.96573e+0
3.44091e+3, 1.96592e+0
3.44721e+3, 1.96600e+0
3.45352e+3, 1.96604e+0
3.45982e+3, 1.96615e+0
3.46613e+3, 1.96633e+0
3.47244e+3, 1.96655e+0
3.47874e+3, 1.96678e+0
3.48505e+3, 1.96702e+0
3.49136e+3, 1.96721e+0
3.49766e+3, 1.96738e+0
3.50397e+3, 1.96761e+0
3.51027e+3, 1.96790e+0
3.51658e+3, 1.96817e+0
3.52289e+3, 1.96837e+0
3.52919e+3, 1.96850e+0
3.53550e+3, 1.96866e+0
3.54180e+3, 1.96890e+0
3.54811e+3, 1.96915e+0
3.55442e+3, 1.96941e+0
3.56072e+3, 1.96962e+0
3.56703e+3, 1.96982e+0
3.57334e+3, 1.97014e+0
3.57964e+3, 1.97051e+0
3.58595e+3, 1.97079e+0
3.59225e+3, 1.97091e+0
3.59856e+3, 1.97105e+0
3.60487e+3, 1.97128e+0
3.61117e+3, 1.97155e+0
3.61748e+3, 1.97183e+0
3.62378e+3, 1.97207e+0
3.63009e+3, 1.97228e+0
3.63640e+3, 1.97257e+0
3.64270e+3, 1.97292e+0
3.64901e+3, 1.97321e+0
3.65532e+3, 1.97338e+0
3.66162e+3, 1.97359e+0
3.66793e+3, 1.97388e+0
3.67423e+3, 1.97420e+0
3.68054e+3, 1.97447e+0
3.68685e+3, 1.97469e+0
3.69315e+3, 1.97504e+0
3.69946e+3, 1.97547e+0
3.70576e+3, 1.97572e+0
3.71207e+3, 1.97584e+0
3.71838e+3, 1.97606e+0
3.72468e+3, 1.97638e+0
3.73099e+3, 1.97671e+0
3.73730e+3, 1.97698e+0
3.74360e+3, 1.97724e+0
3.74991e+3, 1.97763e+0
3.75621e+3, 1.97801e+0
3.76252e+3, 1.97824e+0
3.76883e+3, 1.97845e+0
3.77513e+3, 1.97873e+0
3.78144e+3, 1.97908e+0
3.78774e+3, 1.97938e+0
3.79405e+3, 1.97965e+0
3.80036e+3, 1.98010e+0
3.80666e+3, 1.98052e+0
3.81297e+3, 1.98068e+0
3.81928e+3, 1.98087e+0
3.82558e+3, 1.98121e+0
3.83189e+3, 1.98161e+0
3.83819e+3, 1.98191e+0
3.84450e+3, 1.98222e+0
3.85081e+3, 1.98264e+0
3.85711e+3, 1.98301e+0
3.86342e+3, 1.98322e+0
3.86972e+3, 1.98354e+0
3.87603e+3, 1.98409e+0
3.88234e+3, 1.98499e+0
3.88864e+3, 1.98545e+0
3.89495e+3, 1.98553e+0
3.90126e+3, 1.98554e+0
3.90756e+3, 1.98563e+0
3.91387e+3, 1.98592e+0
3.92017e+3, 1.98629e+0
3.92648e+3, 1.98666e+0
3.93279e+3, 1.98694e+0
3.93909e+3, 1.98737e+0
3.94540e+3, 1.98783e+0
3.95170e+3, 1.98806e+0
3.95801e+3, 1.98841e+0
3.96432e+3, 1.98885e+0
3.97062e+3, 1.98920e+0
3.97693e+3, 1.98963e+0
3.98324e+3, 1.99021e+0
3.98954e+3, 1.99043e+0
3.99585e+3, 1.99066e+0
4.00215e+3, 1.99109e+0
4.00846e+3, 1.99152e+0
4.01477e+3, 1.99184e+0
4.02107e+3, 1.99233e+0
4.02738e+3, 1.99278e+0
4.03368e+3, 1.99303e+0
4.03999e+3, 1.99348e+0
4.04630e+3, 1.99395e+0
4.05260e+3, 1.99432e+0
4.05891e+3, 1.99497e+0
4.06522e+3, 1.99530e+0
4.07152e+3, 1.99554e+0
4.07783e+3, 1.99599e+0
4.08413e+3, 1.99644e+0
4.09044e+3, 1.99681e+0
4.09675e+3, 1.99740e+0
4.10305e+3, 1.99777e+0
4.10936e+3, 1.99815e+0
4.11566e+3, 1.99869e+0
4.12197e+3, 1.99913e+0
4.12828e+3, 1.99983e+0
4.13458e+3, 2.00019e+0
4.14089e+3, 2.00049e+0
4.14719e+3, 2.00102e+0
4.15350e+3, 2.00149e+0
4.15981e+3, 2.00204e+0
4.16611e+3, 2.00257e+0
4.17242e+3, 2.00293e+0
4.17873e+3, 2.00348e+0
4.18503e+3, 2.00402e+0
4.19134e+3, 2.00483e+0
4.19764e+3, 2.00509e+0
4.20395e+3, 2.00549e+0
4.21026e+3, 2.00612e+0
4.21656e+3, 2.00661e+0
4.22287e+3, 2.00732e+0
4.22917e+3, 2.00770e+0
4.23548e+3, 2.00832e+0
4.24179e+3, 2.00887e+0
4.24809e+3, 2.00971e+0
4.25440e+3, 2.01003e+0
4.26071e+3, 2.01060e+0
4.26701e+3, 2.01124e+0
4.27332e+3, 2.01201e+0
4.27962e+3, 2.01249e+0
4.28593e+3, 2.01316e+0
4.29224e+3, 2.01379e+0
4.29854e+3, 2.01471e+0
4.30485e+3, 2.01507e+0
4.31115e+3, 2.01583e+0
4.31746e+3, 2.01659e+0
4.32377e+3, 2.01731e+0
4.33007e+3, 2.01803e+0
4.33638e+3, 2.01884e+0
4.34269e+3, 2.01972e+0
4.34899e+3, 2.02039e+0
4.35530e+3, 2.02122e+0
4.36160e+3, 2.02219e+0
4.36791e+3, 2.02313e+0
4.37422e+3, 2.02457e+0
4.38052e+3, 2.02487e+0
4.38683e+3, 2.02587e+0
4.39313e+3, 2.02702e+0
4.39944e+3, 2.02803e+0
4.40575e+3, 2.02941e+0
4.41205e+3, 2.03034e+0
4.41836e+3, 2.03165e+0
4.42467e+3, 2.03276e+0
4.43097e+3, 2.03429e+0
4.43728e+3, 2.03545e+0
4.44358e+3, 2.03684e+0
4.44989e+3, 2.03825e+0
4.45620e+3, 2.03972e+0
4.46250e+3, 2.04146e+0
4.46881e+3, 2.04300e+0
4.47511e+3, 2.04447e+0
4.48142e+3, 2.04631e+0
4.48773e+3, 2.04793e+0
4.49403e+3, 2.04962e+0
4.50034e+3, 2.05146e+0
4.50665e+3, 2.05351e+0
4.51295e+3, 2.05513e+0
4.51926e+3, 2.05704e+0
4.52556e+3, 2.05897e+0
4.53187e+3, 2.06109e+0
4.53818e+3, 2.06365e+0
4.54448e+3, 2.06531e+0
4.55079e+3, 2.06759e+0
4.55709e+3, 2.06990e+0
4.56340e+3, 2.07209e+0
4.56971e+3, 2.07447e+0
4.57601e+3, 2.07678e+0
4.58232e+3, 2.07933e+0
4.58863e+3, 2.08282e+0
4.59493e+3, 2.08464e+0
4.60124e+3, 2.08794e+0
4.60754e+3, 2.09059e+0
4.61385e+3, 2.09384e+0
4.62016e+3, 2.09743e+0
4.62646e+3, 2.10051e+0
4.63277e+3, 2.10415e+0
4.63907e+3, 2.10785e+0
4.64538e+3, 2.11211e+0
4.65169e+3, 2.11607e+0
4.65799e+3, 2.12037e+0
4.66430e+3, 2.12489e+0
4.67061e+3, 2.12974e+0
4.67691e+3, 2.13476e+0
4.68322e+3, 2.14016e+0
4.68952e+3, 2.14561e+0
4.69583e+3, 2.15154e+0
4.70214e+3, 2.15743e+0
4.70844e+3, 2.16370e+0
4.71475e+3, 2.16996e+0
4.72105e+3, 2.17646e+0
4.72736e+3, 2.18323e+0
4.73367e+3, 2.18982e+0
4.73997e+3, 2.19635e+0
4.74628e+3, 2.20280e+0
4.75259e+3, 2.20896e+0
4.75889e+3, 2.21524e+0
4.76520e+3, 2.22177e+0
4.77150e+3, 2.22798e+0
4.77781e+3, 2.23447e+0
4.78412e+3, 2.24048e+0
4.79042e+3, 2.24679e+0
4.79673e+3, 2.25306e+0
4.80303e+3, 2.25921e+0
4.80934e+3, 2.26540e+0
4.81565e+3, 2.27161e+0
4.82195e+3, 2.27818e+0
4.82826e+3, 2.28375e+0
4.83457e+3, 2.28972e+0
4.84087e+3, 2.29565e+0
4.84718e+3, 2.30154e+0
4.85348e+3, 2.30753e+0
4.85979e+3, 2.31300e+0
4.86610e+3, 2.31876e+0
4.87240e+3, 2.32457e+0
4.87871e+3, 2.33007e+0
4.88501e+3, 2.33614e+0
4.89132e+3, 2.34167e+0
4.89763e+3, 2.34699e+0
4.90393e+3, 2.35266e+0
4.91024e+3, 2.35830e+0
4.91655e+3, 2.36390e+0
4.92285e+3, 2.36940e+0
4.92916e+3, 2.37580e+0
4.93546e+3, 2.38105e+0
4.94177e+3, 2.38629e+0
4.94808e+3, 2.39185e+0
4.95438e+3, 2.39752e+0
4.96069e+3, 2.40304e+0
4.96699e+3, 2.40863e+0
4.97330e+3, 2.41482e+0
4.97961e+3, 2.41987e+0
4.98591e+3, 2.42506e+0
4.99222e+3, 2.43038e+0
4.99853e+3, 2.43565e+0
5.00483e+3, 2.44081e+0
5.01114e+3, 2.44581e+0
5.01744e+3, 2.45073e+0
5.02375e+3, 2.45551e+0
5.03006e+3, 2.46022e+0
5.03636e+3, 2.46465e+0
5.04267e+3, 2.46904e+0
5.04897e+3, 2.47364e+0
5.05528e+3, 2.47754e+0
5.06159e+3, 2.48155e+0
5.06789e+3, 2.48584e+0
5.07420e+3, 2.48973e+0
5.08051e+3, 2.49370e+0
5.08681e+3, 2.49799e+0
5.09312e+3, 2.28049e+0
5.09942e+3, 2.14453e+0
5.10573e+3, 2.09766e+0
5.11204e+3, 2.06021e+0
5.11834e+3, 2.02766e+0
5.12465e+3, 2.00089e+0
5.13095e+3, 1.97925e+0
5.13726e+3, 1.96137e+0
5.14357e+3, 1.94655e+0
5.14987e+3, 1.93397e+0
5.15618e+3, 1.92285e+0
5.16249e+3, 1.91340e+0
5.16879e+3, 1.90485e+0
5.17510e+3, 1.89739e+0
5.18140e+3, 1.89040e+0
5.18771e+3, 1.88423e+0
5.19402e+3, 1.87863e+0
5.20032e+3, 1.87355e+0
5.20663e+3, 1.86886e+0
5.21293e+3, 1.86462e+0
5.21924e+3, 1.86080e+0
5.22555e+3, 1.85709e+0
5.23185e+3, 1.85373e+0
5.23816e+3, 1.85047e+0
5.24447e+3, 1.84754e+0
5.25077e+3, 1.84479e+0
5.25708e+3, 1.84222e+0
5.26338e+3, 1.83984e+0
5.26969e+3, 1.83765e+0
5.27600e+3, 1.83548e+0
5.28230e+3, 1.83373e+0
5.28861e+3, 1.83174e+0
5.29491e+3, 1.82996e+0
5.30122e+3, 1.82908e+0
5.30753e+3, 1.82690e+0
5.31383e+3, 1.82547e+0
5.32014e+3, 1.82431e+0
5.32645e+3, 1.82291e+0
5.33275e+3, 1.82185e+0
5.33906e+3, 1.82065e+0
5.34536e+3, 1.81961e+0
5.35167e+3, 1.81866e+0
5.35798e+3, 1.81776e+0
5.36428e+3, 1.81703e+0
5.37059e+3, 1.81613e+0
5.37689e+3, 1.81548e+0
5.38320e+3, 1.81480e+0
5.38951e+3, 1.81439e+0
5.39581e+3, 1.81359e+0
5.40212e+3, 1.81311e+0
5.40843e+3, 1.81256e+0
5.41473e+3, 1.81222e+0
5.42104e+3, 1.81187e+0
5.42734e+3, 1.81136e+0
5.43365e+3, 1.81102e+0
5.43996e+3, 1.81072e+0
5.44626e+3, 1.81038e+0
5.45257e+3, 1.81007e+0
5.45887e+3, 1.80987e+0
5.46518e+3, 1.80977e+0
5.47149e+3, 1.80971e+0
5.47779e+3, 1.80954e+0
5.48410e+3, 1.80922e+0
5.49041e+3, 1.80890e+0
5.49671e+3, 1.80863e+0
5.50302e+3, 1.80844e+0
5.50932e+3, 1.80826e+0
5.51563e+3, 1.80808e+0
5.52194e+3, 1.80791e+0
5.52824e+3, 1.80776e+0
5.53455e+3, 1.80762e+0
5.54085e+3, 1.80751e+0
5.54716e+3, 1.80740e+0
5.55347e+3, 1.80732e+0
5.55977e+3, 1.80724e+0
5.56608e+3, 1.80713e+0
5.57239e+3, 1.80700e+0
5.57869e+3, 1.80686e+0
5.58500e+3, 1.80672e+0
5.59130e+3, 1.80659e+0
5.59761e+3, 1.80647e+0
5.60392e+3, 1.80636e+0
5.61022e+3, 1.80627e+0
5.61653e+3, 1.80619e+0
5.62283e+3, 1.80612e+0
5.62914e+3, 1.80605e+0
5.63545e+3, 1.80598e+0
5.64175e+3, 1.80588e+0
5.64806e+3, 1.80580e+0
5.65437e+3, 1.80570e+0
5.66067e+3, 1.80561e+0
5.66698e+3, 1.80553e+0
5.67328e+3, 1.80543e+0
5.67959e+3, 1.80534e+0
5.68590e+3, 1.80526e+0
5.69220e+3, 1.80518e+0
5.69851e+3, 1.80511e+0
5.70481e+3, 1.80506e+0
5.71112e+3, 1.80500e+0
5.71743e+3, 1.80495e+0
5.72373e+3, 1.80492e+0
5.73004e+3, 1.80489e+0
5.73635e+3, 1.80486e+0
5.74265e+3, 1.80483e+0
5.74896e+3, 1.80478e+0
5.75526e+3, 1.80472e+0
5.76157e+3, 1.80465e+0
5.76788e+3, 1.80456e+0
5.77418e+3, 1.80444e+0
5.78049e+3, 1.80436e+0
5.78679e+3, 1.80424e+0
5.79310e+3, 1.80415e+0
5.79941e+3, 1.80404e+0
5.80571e+3, 1.80395e+0
5.81202e+3, 1.80388e+0
5.81833e+3, 1.80380e+0
5.82463e+3, 1.80374e+0
5.83094e+3, 1.80369e+0
5.83724e+3, 1.80364e+0
5.84355e+3, 1.80359e+0
5.84986e+3, 1.80354e+0
5.85616e+3, 1.80348e+0
5.86247e+3, 1.80341e+0
5.86877e+3, 1.80334e+0
5.87508e+3, 1.80327e+0
5.88139e+3, 1.80321e+0
5.88769e+3, 1.80313e+0
5.89400e+3, 1.80306e+0
5.90031e+3, 1.80299e+0
5.90661e+3, 1.80293e+0
5.91292e+3, 1.80287e+0
5.91922e+3, 1.80281e+0
5.92553e+3, 1.80275e+0
5.93184e+3, 1.80269e+0
5.93814e+3, 1.80264e+0
5.94445e+3, 1.80260e+0
5.95075e+3, 1.80256e+0
5.95706e+3, 1.80252e+0
5.96337e+3, 1.80248e+0
5.96967e+3, 1.80245e+0
5.97598e+3, 1.80242e+0
5.98229e+3, 1.80238e+0
5.98859e+3, 1.80234e+0
5.99490e+3, 1.80229e+0
6.00120e+3, 1.80221e+0
6.00751e+3, 1.80216e+0
6.01382e+3, 1.80209e+0
6.02012e+3, 1.80203e+0
6.02643e+3, 1.80195e+0
6.03273e+3, 1.80187e+0
6.03904e+3, 1.80180e+0
6.04535e+3, 1.80173e+0
6.05165e+3, 1.80166e+0
6.05796e+3, 1.80159e+0
6.06427e+3, 1.80153e+0
6.07057e+3, 1.80146e+0
6.07688e+3, 1.80142e+0
6.08318e+3, 1.80136e+0
6.08949e+3, 1.80131e+0
6.09580e+3, 1.80128e+0
6.10210e+3, 1.80124e+0
6.10841e+3, 1.80119e+0
6.11471e+3, 1.80116e+0
6.12102e+3, 1.80110e+0
6.12733e+3, 1.80106e+0
6.13363e+3, 1.80101e+0
6.13994e+3, 1.80096e+0
6.14625e+3, 1.80091e+0
6.15255e+3, 1.80085e+0
6.15886e+3, 1.80078e+0
6.16516e+3, 1.80072e+0
6.17147e+3, 1.80068e+0
6.17778e+3, 1.80063e+0
6.18408e+3, 1.80057e+0
6.19039e+3, 1.80051e+0
6.19669e+3, 1.80046e+0
6.20300e+3, 1.80040e+0
6.20931e+3, 1.80036e+0
6.21561e+3, 1.80032e+0
6.22192e+3, 1.80026e+0
6.22823e+3, 1.80023e+0
6.23453e+3, 1.80018e+0
6.24084e+3, 1.80015e+0
6.24714e+3, 1.80012e+0
6.25345e+3, 1.80009e+0
6.25976e+3, 1.80006e+0
6.26606e+3, 1.80005e+0
6.27237e+3, 1.80002e+0
6.27867e+3, 1.80001e+0
6.28498e+3, 1.79999e+0
6.29129e+3, 1.79996e+0
6.29759e+3, 1.79994e+0
6.30390e+3, 1.79991e+0
6.31021e+3, 1.79987e+0
6.31651e+3, 1.79983e+0
6.32282e+3, 1.79979e+0
6.32912e+3, 1.79973e+0
6.33543e+3, 1.79965e+0
6.34174e+3, 1.79958e+0
6.34804e+3, 1.79951e+0
6.35435e+3, 1.79943e+0
6.36065e+3, 1.79936e+0
6.36696e+3, 1.79929e+0
6.37327e+3, 1.79921e+0
6.37957e+3, 1.79914e+0
6.38588e+3, 1.79908e+0
6.39219e+3, 1.79901e+0
6.39849e+3, 1.79896e+0
6.40480e+3, 1.79892e+0
6.41110e+3, 1.79887e+0
6.41741e+3, 1.79883e+0
6.42372e+3, 1.79880e+0
6.43002e+3, 1.79877e+0
6.43633e+3, 1.79872e+0
6.44263e+3, 1.79868e+0
6.44894e+3, 1.79865e+0
6.45525e+3, 1.79860e+0
6.46155e+3, 1.79855e+0
6.46786e+3, 1.79851e+0
6.47417e+3, 1.79846e+0
6.48047e+3, 1.79840e+0
6.48678e+3, 1.79835e+0
6.49308e+3, 1.79829e+0
6.49939e+3, 1.79824e+0
6.50570e+3, 1.79819e+0
6.51200e+3, 1.79814e+0
6.51831e+3, 1.79809e+0
6.52461e+3, 1.79804e+0
6.53092e+3, 1.79799e+0
6.53723e+3, 1.79793e+0
6.54353e+3, 1.79788e+0
6.54984e+3, 1.79783e+0
6.55615e+3, 1.79779e+0
6.56245e+3, 1.79775e+0
6.56876e+3, 1.79771e+0
6.57506e+3, 1.79768e+0
6.58137e+3, 1.79764e+0
6.58768e+3, 1.79762e+0
6.59398e+3, 1.79759e+0
6.60029e+3, 1.79756e+0
6.60659e+3, 1.79753e+0
6.61290e+3, 1.79750e+0
6.61921e+3, 1.79746e+0
6.62551e+3, 1.79742e+0
6.63182e+3, 1.79737e+0
6.63813e+3, 1.79730e+0
6.64443e+3, 1.79724e+0
6.65074e+3, 1.79717e+0
6.65704e+3, 1.79709e+0
6.66335e+3, 1.79701e+0
6.66966e+3, 1.79692e+0
6.67596e+3, 1.79683e+0
6.68227e+3, 1.79676e+0
6.68857e+3, 1.79669e+0
6.69488e+3, 1.79660e+0
6.70119e+3, 1.79655e+0
6.70749e+3, 1.79649e+0
6.71380e+3, 1.79643e+0
6.72010e+3, 1.79639e+0
6.72641e+3, 1.79634e+0
6.73272e+3, 1.79629e+0
6.73902e+3, 1.79623e+0
6.74533e+3, 1.79617e+0
6.75164e+3, 1.79610e+0
6.75794e+3, 1.79604e+0
6.76425e+3, 1.79596e+0
6.77055e+3, 1.79588e+0
6.77686e+3, 1.79580e+0
6.78317e+3, 1.79573e+0
6.78947e+3, 1.79564e+0
6.79578e+3, 1.79557e+0
6.80208e+3, 1.79549e+0
6.80839e+3, 1.79542e+0
6.81470e+3, 1.79535e+0
6.82100e+3, 1.79529e+0
6.82731e+3, 1.79523e+0
6.83362e+3, 1.79519e+0
6.83992e+3, 1.79516e+0
6.84623e+3, 1.79513e+0
6.85253e+3, 1.79510e+0
6.85884e+3, 1.79506e+0
6.86515e+3, 1.79500e+0
6.87145e+3, 1.79492e+0
6.87776e+3, 1.79483e+0
6.88406e+3, 1.79472e+0
6.89037e+3, 1.79459e+0
6.89668e+3, 1.79445e+0
6.90298e+3, 1.79433e+0
6.90929e+3, 1.79423e+0
6.91560e+3, 1.79411e+0
6.92190e+3, 1.79403e+0
6.92821e+3, 1.79396e+0
6.93451e+3, 1.79388e+0
6.94082e+3, 1.79381e+0
6.94713e+3, 1.79372e+0
6.95343e+3, 1.79363e+0
6.95974e+3, 1.79352e+0
6.96604e+3, 1.79342e+0
6.97235e+3, 1.79330e+0
6.97866e+3, 1.79319e+0
6.98496e+3, 1.79309e+0
6.99127e+3, 1.79299e+0
6.99758e+3, 1.79290e+0
7.00388e+3, 1.79282e+0
7.01019e+3, 1.79276e+0
7.01649e+3, 1.79270e+0
7.02280e+3, 1.79265e+0
7.02911e+3, 1.79259e+0
7.03541e+3, 1.79250e+0
7.04172e+3, 1.79240e+0
7.04802e+3, 1.79227e+0
7.05433e+3, 1.79212e+0
7.06064e+3, 1.79199e+0
7.06694e+3, 1.79184e+0
7.07325e+3, 1.79173e+0
7.07956e+3, 1.79160e+0
7.08586e+3, 1.79151e+0
7.09217e+3, 1.79143e+0
7.09847e+3, 1.79134e+0
7.10478e+3, 1.79123e+0
7.11109e+3, 1.79112e+0
7.11739e+3, 1.79100e+0
7.12370e+3, 1.79087e+0
7.13000e+3, 1.79075e+0
7.13631e+3, 1.79064e+0
7.14262e+3, 1.79053e+0
7.14892e+3, 1.79043e+0
7.15523e+3, 1.79035e+0
7.16154e+3, 1.79029e+0
7.16784e+3, 1.79026e+0
7.17415e+3, 1.79024e+0
7.18045e+3, 1.79024e+0
7.18676e+3, 1.79023e+0
7.19307e+3, 1.79022e+0
7.19937e+3, 1.79019e+0
7.20568e+3, 1.79013e+0
7.21198e+3, 1.79002e+0
7.21829e+3, 1.78983e+0
7.22460e+3, 1.78962e+0
7.23090e+3, 1.78932e+0
7.23721e+3, 1.78902e+0
7.24352e+3, 1.78879e+0
7.24982e+3, 1.78858e+0
7.25613e+3, 1.78840e+0
7.26243e+3, 1.78827e+0
7.26874e+3, 1.78814e+0
7.27505e+3, 1.78802e+0
7.28135e+3, 1.78792e+0
7.28766e+3, 1.78784e+0
7.29396e+3, 1.78777e+0
7.30027e+3, 1.78768e+0
7.30658e+3, 1.78755e+0
7.31288e+3, 1.78741e+0
7.31919e+3, 1.78726e+0
7.32550e+3, 1.78710e+0
7.33180e+3, 1.78695e+0
7.33811e+3, 1.78681e+0
7.34441e+3, 1.78670e+0
7.35072e+3, 1.78659e+0
7.35703e+3, 1.78649e+0
7.36333e+3, 1.78635e+0
7.36964e+3, 1.78619e+0
7.37594e+3, 1.78604e+0
7.38225e+3, 1.78587e+0
7.38856e+3, 1.78574e+0
7.39486e+3, 1.78560e+0
7.40117e+3, 1.78549e+0
7.40748e+3, 1.78540e+0
7.41378e+3, 1.78534e+0
7.42009e+3, 1.78527e+0
7.42639e+3, 1.78513e+0
7.43270e+3, 1.78494e+0
7.43901e+3, 1.78470e+0
7.44531e+3, 1.78448e+0
7.45162e+3, 1.78429e+0
7.45792e+3, 1.78413e+0
7.46423e+3, 1.78399e+0
7.47054e+3, 1.78382e+0
7.47684e+3, 1.78363e+0
7.48315e+3, 1.78346e+0
7.48946e+3, 1.78330e+0
7.49576e+3, 1.78313e+0
7.50207e+3, 1.78302e+0
7.50837e+3, 1.78292e+0
7.51468e+3, 1.78282e+0
7.52099e+3, 1.78268e+0
7.52729e+3, 1.78248e+0
7.53360e+3, 1.78227e+0
7.53990e+3, 1.78206e+0
7.54621e+3, 1.78189e+0
7.55252e+3, 1.78174e+0
7.55882e+3, 1.78159e+0
7.56513e+3, 1.78143e+0
7.57144e+3, 1.78124e+0
7.57774e+3, 1.78106e+0
7.58405e+3, 1.78088e+0
7.59035e+3, 1.78072e+0
7.59666e+3, 1.78059e+0
7.60297e+3, 1.78050e+0
7.60927e+3, 1.78044e+0
7.61558e+3, 1.78033e+0
7.62188e+3, 1.78013e+0
7.62819e+3, 1.77985e+0
7.63450e+3, 1.77960e+0
7.64080e+3, 1.77939e+0
7.64711e+3, 1.77924e+0
7.65342e+3, 1.77908e+0
7.65972e+3, 1.77889e+0
7.66603e+3, 1.77867e+0
7.67233e+3, 1.77847e+0
7.67864e+3, 1.77828e+0
7.68495e+3, 1.77814e+0
7.69125e+3, 1.77803e+0
7.69756e+3, 1.77791e+0
7.70386e+3, 1.77773e+0
7.71017e+3, 1.77748e+0
7.71648e+3, 1.77725e+0
7.72278e+3, 1.77705e+0
7.72909e+3, 1.77688e+0
7.73540e+3, 1.77673e+0
7.74170e+3, 1.77657e+0
7.74801e+3, 1.77635e+0
7.75431e+3, 1.77615e+0
7.76062e+3, 1.77595e+0
7.76693e+3, 1.77578e+0
7.77323e+3, 1.77566e+0
7.77954e+3, 1.77558e+0
7.78584e+3, 1.77548e+0
7.79215e+3, 1.77526e+0
7.79846e+3, 1.77496e+0
7.80476e+3, 1.77468e+0
7.81107e+3, 1.77446e+0
7.81738e+3, 1.77430e+0
7.82368e+3, 1.77410e+0
7.82999e+3, 1.77385e+0
7.83629e+3, 1.77361e+0
7.84260e+3, 1.77340e+0
7.84891e+3, 1.77324e+0
7.85521e+3, 1.77312e+0
7.86152e+3, 1.77296e+0
7.86782e+3, 1.77272e+0
7.87413e+3, 1.77243e+0
7.88044e+3, 1.77220e+0
7.88674e+3, 1.77201e+0
7.89305e+3, 1.77185e+0
7.89936e+3, 1.77164e+0
7.90566e+3, 1.77138e+0
7.91197e+3, 1.77113e+0
7.91827e+3, 1.77093e+0
7.92458e+3, 1.77079e+0
7.93089e+3, 1.77071e+0
7.93719e+3, 1.77064e+0
7.94350e+3, 1.77042e+0
7.94980e+3, 1.77007e+0
7.95611e+3, 1.76973e+0
7.96242e+3, 1.76952e+0
7.96872e+3, 1.76933e+0
7.97503e+3, 1.76910e+0
7.98134e+3, 1.76885e+0
7.98764e+3, 1.76863e+0
7.99395e+3, 1.76843e+0
8.00025e+3, 1.76828e+0
8.00656e+3, 1.76811e+0
8.01287e+3, 1.76790e+0
8.01917e+3, 1.76759e+0
8.02548e+3, 1.76733e+0
8.03178e+3, 1.76713e+0
8.03809e+3, 1.76694e+0
8.04440e+3, 1.76670e+0
8.05070e+3, 1.76644e+0
8.05701e+3, 1.76620e+0
8.06332e+3, 1.76599e+0
8.06962e+3, 1.76587e+0
8.07593e+3, 1.76578e+0
8.08223e+3, 1.76560e+0
8.08854e+3, 1.76526e+0
8.09485e+3, 1.76494e+0
8.10115e+3, 1.76469e+0
8.10746e+3, 1.76451e+0
8.11376e+3, 1.76427e+0
8.12007e+3, 1.76401e+0
8.12638e+3, 1.76374e+0
8.13268e+3, 1.76353e+0
8.13899e+3, 1.76339e+0
8.14530e+3, 1.76321e+0
8.15160e+3, 1.76293e+0
8.15791e+3, 1.76262e+0
8.16421e+3, 1.76236e+0
8.17052e+3, 1.76215e+0
8.17683e+3, 1.76193e+0
8.18313e+3, 1.76164e+0
8.18944e+3, 1.76135e+0
8.19573e+3, 1.76111e+0
8.20200e+3, 1.76097e+0
8.20828e+3, 1.76087e+0
8.21455e+3, 1.76059e+0
8.22083e+3, 1.76018e+0
8.22710e+3, 1.75986e+0
8.23338e+3, 1.75965e+0
8.23965e+3, 1.75939e+0
8.24593e+3, 1.75908e+0
8.25221e+3, 1.75880e+0
8.25848e+3, 1.75858e+0
8.26476e+3, 1.75842e+0
8.27103e+3, 1.75812e+0
8.27731e+3, 1.75774e+0
8.28358e+3, 1.75742e+0
8.28986e+3, 1.75719e+0
8.29613e+3, 1.75690e+0
8.30241e+3, 1.75656e+0
8.30868e+3, 1.75625e+0
8.31496e+3, 1.75608e+0
8.32123e+3, 1.75593e+0
8.32751e+3, 1.75555e+0
8.33379e+3, 1.75509e+0
8.34006e+3, 1.75481e+0
8.34634e+3, 1.75451e+0
8.35261e+3, 1.75416e+0
8.35889e+3, 1.75384e+0
8.36516e+3, 1.75362e+0
8.37144e+3, 1.75335e+0
8.37771e+3, 1.75293e+0
8.38399e+3, 1.75257e+0
8.39026e+3, 1.75231e+0
8.39654e+3, 1.75197e+0
8.40281e+3, 1.75161e+0
8.40909e+3, 1.75131e+0
8.41537e+3, 1.75119e+0
8.42164e+3, 1.75117e+0
8.42792e+3, 1.75109e+0
8.43419e+3, 1.75067e+0
8.44047e+3, 1.74985e+0
8.44674e+3, 1.74925e+0
8.45302e+3, 1.74889e+0
8.45929e+3, 1.74867e+0
8.46557e+3, 1.74829e+0
8.47184e+3, 1.74785e+0
8.47812e+3, 1.74752e+0
8.48439e+3, 1.74716e+0
8.49067e+3, 1.74674e+0
8.49695e+3, 1.74640e+0
8.50322e+3, 1.74623e+0
8.50950e+3, 1.74576e+0
8.51577e+3, 1.74520e+0
8.52205e+3, 1.74481e+0
8.52832e+3, 1.74434e+0
8.53460e+3, 1.74396e+0
8.54087e+3, 1.74369e+0
8.54715e+3, 1.74317e+0
8.55342e+3, 1.74271e+0
8.55970e+3, 1.74229e+0
8.56597e+3, 1.74180e+0
8.57225e+3, 1.74145e+0
8.57853e+3, 1.74118e+0
8.58480e+3, 1.74050e+0
8.59108e+3, 1.74005e+0
8.59735e+3, 1.73948e+0
8.60363e+3, 1.73904e+0
8.60990e+3, 1.73865e+0
8.61618e+3, 1.73802e+0
8.62245e+3, 1.73760e+0
8.62873e+3, 1.73705e+0
8.63500e+3, 1.73660e+0
8.64128e+3, 1.73628e+0
8.64755e+3, 1.73549e+0
8.65383e+3, 1.73496e+0
8.66011e+3, 1.73430e+0
8.66638e+3, 1.73390e+0
8.67266e+3, 1.73318e+0
8.67893e+3, 1.73267e+0
8.68521e+3, 1.73198e+0
8.69148e+3, 1.73163e+0
8.69776e+3, 1.73098e+0
8.70403e+3, 1.73023e+0
8.71031e+3, 1.72953e+0
8.71658e+3, 1.72901e+0
8.72286e+3, 1.72820e+0
8.72913e+3, 1.72752e+0
8.73541e+3, 1.72684e+0
8.74169e+3, 1.72628e+0
8.74796e+3, 1.72545e+0
8.75424e+3, 1.72465e+0
8.76051e+3, 1.72406e+0
8.76679e+3, 1.72316e+0
8.77306e+3, 1.72234e+0
8.77934e+3, 1.72180e+0
8.78561e+3, 1.72077e+0
8.79189e+3, 1.71996e+0
8.79816e+3, 1.71928e+0
8.80444e+3, 1.71830e+0
8.81071e+3, 1.71740e+0
8.81699e+3, 1.71680e+0
8.82327e+3, 1.71570e+0
8.82954e+3, 1.71475e+0
8.83582e+3, 1.71383e+0
8.84209e+3, 1.71289e+0
8.84837e+3, 1.71213e+0
8.85464e+3, 1.71129e+0
8.86092e+3, 1.70995e+0
8.86719e+3, 1.70892e+0
8.87347e+3, 1.70788e+0
8.87974e+3, 1.70707e+0
8.88602e+3, 1.70579e+0
8.89229e+3, 1.70476e+0
8.89857e+3, 1.70353e+0
8.90485e+3, 1.70242e+0
8.91112e+3, 1.70123e+0
8.91740e+3, 1.70004e+0
8.92367e+3, 1.69874e+0
8.92995e+3, 1.69753e+0
8.93622e+3, 1.69623e+0
8.94250e+3, 1.69499e+0
8.94877e+3, 1.69352e+0
8.95505e+3, 1.69255e+0
8.96132e+3, 1.69066e+0
8.96760e+3, 1.68921e+0
8.97388e+3, 1.68779e+0
8.98015e+3, 1.68621e+0
8.98643e+3, 1.68470e+0
8.99270e+3, 1.68302e+0
8.99898e+3, 1.68140e+0
9.00525e+3, 1.67972e+0
9.01153e+3, 1.67800e+0
9.01780e+3, 1.67614e+0
9.02408e+3, 1.67432e+0
9.03035e+3, 1.67305e+0
9.03663e+3, 1.67060e+0
9.04290e+3, 1.66846e+0
9.04918e+3, 1.66649e+0
9.05546e+3, 1.66436e+0
9.06173e+3, 1.66213e+0
9.06801e+3, 1.65982e+0
9.07428e+3, 1.65748e+0
9.08056e+3, 1.65505e+0
9.08683e+3, 1.65265e+0
9.09311e+3, 1.64990e+0
9.09938e+3, 1.64728e+0
9.10566e+3, 1.64439e+0
9.11193e+3, 1.64149e+0
9.11821e+3, 1.63876e+0
9.12448e+3, 1.63535e+0
9.13076e+3, 1.63212e+0
9.13704e+3, 1.62905e+0
9.14331e+3, 1.62536e+0
9.14959e+3, 1.62178e+0
9.15586e+3, 1.61796e+0
9.16214e+3, 1.61435e+0
9.16841e+3, 1.60992e+0
9.17469e+3, 1.60572e+0
9.18096e+3, 1.60130e+0
9.18724e+3, 1.59671e+0
9.19351e+3, 1.59188e+0
9.19979e+3, 1.58677e+0
9.20606e+3, 1.58151e+0
9.21234e+3, 1.57590e+0
9.21862e+3, 1.57031e+0
9.22489e+3, 1.56389e+0
9.23117e+3, 1.55735e+0
9.23744e+3, 1.55066e+0
9.24372e+3, 1.54304e+0
9.24999e+3, 1.53508e+0
9.25627e+3, 1.52657e+0
9.26254e+3, 1.51704e+0
9.26882e+3, 1.50693e+0
9.27509e+3, 1.49513e+0
9.28137e+3, 1.48255e+0
9.28764e+3, 1.46783e+0
9.29392e+3, 1.45088e+0
9.30020e+3, 1.43136e+0
9.30647e+3, 1.40895e+0
9.31275e+3, 1.38389e+0
9.31902e+3, 1.35710e+0
9.32530e+3, 1.32851e+0
9.33157e+3, 1.29765e+0
9.33785e+3, 1.26474e+0
9.34412e+3, 1.22925e+0
9.35040e+3, 1.19204e+0
9.35667e+3, 1.15290e+0
9.36295e+3, 1.11144e+0
9.36922e+3, 1.06772e+0
9.37550e+3, 1.02232e+0
9.37839e+3, 1.00064e+0