File: database/experiments/MU/xrd/1102/parallel/1029/xrd/25.TXT
Sample
Comments
Filename	C:\Data\西出研\梅木\20211102オペ\LiFTFSI20wt_01_0001_0029-1_C_2θ.raw
Goniometer	SmartLab(In-plane)
Attachment	標準Zステージ
Monochromater	None
X	0
Y	0
Z	0.01716
ScanningMode	2Theta
ScanningType	Continuos Scanning
X-Ray	40kV/30mA
入射スリット	0.300mm
受光スリット1	20.000mm
受光スリット2	20.000mm
None
Start	5
Stop	60
Step	0.02
Speed	21.6746
Theta	0
5	6917.8
5.04	6267.56
5.08	6791.37
5.12	6845.55
5.16	6556.56
5.2	5906.32
5.24	6791.37
5.28	6484.31
5.32	6664.93
5.36	6357.88
5.4	7008.11
5.44	6737.18
5.48	6592.68
5.52	6556.56
5.56	7224.86
5.6	6755.24
5.64	5942.45
5.68	6863.62
5.72	6014.69
5.76	6430.12
5.8	6014.69
5.84	6466.25
5.88	5779.89
5.92	6899.74
5.96	6375.94
6	6484.31
6.04	6664.93
6.08	6448.19
6.12	6303.69
6.16	6213.38
6.2	6646.87
6.24	6538.5
6.28	6466.25
6.32	6105.01
6.36	6032.76
6.4	6574.62
6.44	6086.94
6.48	6267.56
6.52	5960.51
6.56	5635.39
6.6	5779.89
6.64	5581.2
6.68	5852.14
6.72	6086.94
6.76	5978.57
6.8	5653.45
6.84	6231.44
6.88	5942.45
6.92	6213.38
6.96	5924.38
7	5816.01
7.04	5635.39
7.08	5545.08
7.12	5689.58
7.16	5563.14
7.2	5816.01
7.24	5256.08
7.28	5436.71
7.32	6014.69
7.36	5292.21
7.4	6249.5
7.44	5508.95
7.48	5508.95
7.52	5183.84
7.56	5725.7
7.6	5852.14
7.64	5527.02
7.68	5852.14
7.72	5707.64
7.76	6249.5
7.8	5310.27
7.84	5346.4
7.88	5870.2
7.92	5418.64
7.96	5635.39
8	5852.14
8.04	5165.77
8.08	5057.4
8.12	5400.58
8.16	5671.51
8.2	6105.01
8.24	5635.39
8.28	5761.82
8.32	5581.2
8.36	5472.83
8.4	5472.83
8.44	5834.07
8.48	5238.02
8.52	5960.51
8.56	5797.95
8.6	5942.45
8.64	5978.57
8.68	6249.5
8.72	5508.95
8.76	5852.14
8.8	5689.58
8.84	5346.4
8.88	5454.77
8.92	5834.07
8.96	5527.02
9	5382.52
9.04	5545.08
9.08	5310.27
9.12	5382.52
9.16	5129.65
9.2	5418.64
9.24	5400.58
9.28	5490.89
9.32	5364.46
9.36	5183.84
9.4	5039.34
9.44	5003.21
9.48	4912.9
9.52	5183.84
9.56	5508.95
9.6	4858.72
9.64	5147.71
9.68	5165.77
9.72	5508.95
9.76	5779.89
9.8	5165.77
9.84	5400.58
9.88	5382.52
9.92	5075.46
9.96	5653.45
10	5454.77
10.04	4985.15
10.08	5075.46
10.12	5292.21
10.16	5779.89
10.2	5382.52
10.24	5129.65
10.28	4551.66
10.32	5454.77
10.36	4985.15
10.4	5635.39
10.44	5147.71
10.48	4930.97
10.52	5563.14
10.56	5183.84
10.6	5075.46
10.64	5563.14
10.68	4949.03
10.72	5653.45
10.76	5165.77
10.8	5400.58
10.84	5563.14
10.88	5147.71
10.92	5165.77
10.96	5310.27
11	5039.34
11.04	5527.02
11.08	5310.27
11.12	5761.82
11.16	4930.97
11.2	4930.97
11.24	5599.27
11.28	5581.2
11.32	5346.4
11.36	5219.96
11.4	5761.82
11.44	5310.27
11.48	5436.71
11.52	5545.08
11.56	4894.84
11.6	5382.52
11.64	5147.71
11.68	5256.08
11.72	5219.96
11.76	4985.15
11.8	5256.08
11.84	5292.21
11.88	5436.71
11.92	4876.78
11.96	4605.85
12	4623.91
12.04	4912.9
12.08	4678.1
12.12	5256.08
12.16	4641.97
12.2	5129.65
12.24	4533.6
12.28	4985.15
12.32	4804.53
12.36	5599.27
12.4	4569.72
12.44	5256.08
12.48	5960.51
12.52	5508.95
12.56	5219.96
12.6	5147.71
12.64	5599.27
12.68	4985.15
12.72	4641.97
12.76	4786.47
12.8	5328.33
12.84	5292.21
12.88	4930.97
12.92	5960.51
12.96	5581.2
13	5400.58
13.04	5274.15
13.08	5256.08
13.12	5454.77
13.16	5219.96
13.2	4714.22
13.24	5310.27
13.28	5238.02
13.32	5581.2
13.36	4551.66
13.4	4912.9
13.44	5003.21
13.48	5129.65
13.52	4623.91
13.56	5328.33
13.6	4551.66
13.64	5039.34
13.68	5328.33
13.72	5310.27
13.76	5400.58
13.8	5238.02
13.84	5201.9
13.88	5093.53
13.92	5219.96
13.96	5165.77
14	5219.96
14.04	5165.77
14.08	5165.77
14.12	4479.41
14.16	4985.15
14.2	5400.58
14.24	5129.65
14.28	4732.28
14.32	4696.16
14.36	4443.29
14.4	5075.46
14.44	5147.71
14.48	4696.16
14.52	4696.16
14.56	5039.34
14.6	4804.53
14.64	4732.28
14.68	4786.47
14.72	5039.34
14.76	5075.46
14.8	5274.15
14.84	5075.46
14.88	4967.09
14.92	4967.09
14.96	4840.66
15	4750.34
15.04	5274.15
15.08	4768.41
15.12	4587.79
15.16	4696.16
15.2	4605.85
15.24	4876.78
15.28	4678.1
15.32	4840.66
15.36	5400.58
15.4	4967.09
15.44	5003.21
15.48	4876.78
15.52	4985.15
15.56	4985.15
15.6	4479.41
15.64	4912.9
15.68	4930.97
15.72	5093.53
15.76	4443.29
15.8	4678.1
15.84	5238.02
15.88	5183.84
15.92	4407.16
15.96	5057.4
16	4894.84
16.04	4858.72
16.08	4768.41
16.12	4316.85
16.16	4985.15
16.2	4641.97
16.24	4623.91
16.28	4985.15
16.32	4876.78
16.36	5057.4
16.4	4660.03
16.44	4786.47
16.48	4515.54
16.52	4551.66
16.56	4587.79
16.6	4623.91
16.64	4551.66
16.68	4641.97
16.72	4714.22
16.76	4371.04
16.8	4154.29
16.84	4660.03
16.88	4732.28
16.92	4660.03
16.96	4732.28
17	4876.78
17.04	4840.66
17.08	5292.21
17.12	4876.78
17.16	4678.1
17.2	5219.96
17.24	5003.21
17.28	5183.84
17.32	5508.95
17.36	5039.34
17.4	5093.53
17.44	4623.91
17.48	4569.72
17.52	5057.4
17.56	4714.22
17.6	4732.28
17.64	4605.85
17.68	4678.1
17.72	4407.16
17.76	4226.54
17.8	4822.59
17.84	4641.97
17.88	4660.03
17.92	4696.16
17.96	4750.34
18	4172.36
18.04	4696.16
18.08	5075.46
18.12	4786.47
18.16	4840.66
18.2	5075.46
18.24	5906.32
18.28	4949.03
18.32	5508.95
18.36	5292.21
18.4	5129.65
18.44	5039.34
18.48	4605.85
18.52	5039.34
18.56	5057.4
18.6	5003.21
18.64	5490.89
18.68	4605.85
18.72	5111.59
18.76	5057.4
18.8	5219.96
18.84	6068.88
18.88	4732.28
18.92	4930.97
18.96	5129.65
19	5418.64
19.04	5201.9
19.08	5906.32
19.12	5436.71
19.16	5508.95
19.2	5761.82
19.24	5418.64
19.28	5003.21
19.32	5707.64
19.36	5075.46
19.4	5346.4
19.44	5057.4
19.48	4352.98
19.52	4533.6
19.56	4822.59
19.6	4551.66
19.64	4822.59
19.68	4623.91
19.72	4569.72
19.76	4750.34
19.8	4371.04
19.84	4605.85
19.88	4750.34
19.92	4623.91
19.96	4461.35
20	4551.66
20.04	4280.73
20.08	4461.35
20.12	4082.05
20.16	4262.67
20.2	4009.8
20.24	4082.05
20.28	3955.61
20.32	4768.41
20.36	4515.54
20.4	3774.99
20.44	4027.86
20.48	4569.72
20.52	4298.79
20.56	3937.55
20.6	4389.1
20.64	4389.1
20.68	4190.42
20.72	4786.47
20.76	4154.29
20.8	4280.73
20.84	4732.28
20.88	4045.92
20.92	4172.36
20.96	4389.1
21	4063.98
21.04	3955.61
21.08	3973.67
21.12	4407.16
21.16	4515.54
21.2	4100.11
21.24	3973.67
21.28	4244.6
21.32	3883.36
21.36	4334.92
21.4	4190.42
21.44	4334.92
21.48	4443.29
21.52	4208.48
21.56	4334.92
21.6	4623.91
21.64	3901.42
21.68	3937.55
21.72	3865.3
21.76	3901.42
21.8	4280.73
21.84	4190.42
21.88	3720.8
21.92	4009.8
21.96	4262.67
22	4407.16
22.04	3865.3
22.08	4208.48
22.12	3467.93
22.16	4045.92
22.2	3919.49
22.24	3901.42
22.28	3684.68
22.32	3702.74
22.36	4425.23
22.4	3883.36
22.44	3522.12
22.48	3955.61
22.52	4063.98
22.56	4316.85
22.6	3720.8
22.64	3720.8
22.68	4045.92
22.72	4118.17
22.76	3377.62
22.8	3485.99
22.84	3576.31
22.88	3720.8
22.92	3901.42
22.96	3793.05
23	3973.67
23.04	4352.98
23.08	3648.55
23.12	3883.36
23.16	3937.55
23.2	4190.42
23.24	3720.8
23.28	3648.55
23.32	3612.43
23.36	4172.36
23.4	3684.68
23.44	3359.56
23.48	3738.86
23.52	3883.36
23.56	3612.43
23.6	3973.67
23.64	3648.55
23.68	3594.37
23.72	4082.05
23.76	3738.86
23.8	3738.86
23.84	3991.73
23.88	3793.05
23.92	3937.55
23.96	4407.16
24	3774.99
24.04	3865.3
24.08	4082.05
24.12	3774.99
24.16	3829.18
24.2	3955.61
24.24	3576.31
24.28	3540.18
24.32	3413.75
24.36	3359.56
24.4	3756.93
24.44	3467.93
24.48	3684.68
24.52	3215.06
24.56	3341.5
24.6	3016.38
24.64	3648.55
24.68	3323.44
24.72	3287.31
24.76	3160.88
24.8	3630.49
24.84	3160.88
24.88	3016.38
24.92	3485.99
24.96	3540.18
25	2817.69
25.04	3178.94
25.08	2926.07
25.12	3431.81
25.16	3070.56
25.2	2980.25
25.24	3142.81
25.28	2835.76
25.32	3251.19
25.36	3341.5
25.4	3359.56
25.44	3160.88
25.48	3305.37
25.52	3485.99
25.56	3287.31
25.6	3233.12
25.64	3160.88
25.68	3413.75
25.72	3359.56
25.76	3377.62
25.8	3160.88
25.84	3558.24
25.88	3449.87
25.92	4118.17
25.96	3558.24
26	3522.12
26.04	3738.86
26.08	3991.73
26.12	4587.79
26.16	4009.8
26.2	4045.92
26.24	3467.93
26.28	3467.93
26.32	2727.38
26.36	3323.44
26.4	2944.13
26.44	2962.19
26.48	3215.06
26.52	2944.13
26.56	2492.58
26.6	2962.19
26.64	2835.76
26.68	2655.14
26.72	2908.01
26.76	2709.32
26.8	2582.89
26.84	2745.45
26.88	2564.82
26.92	2799.63
26.96	2239.71
27	2853.82
27.04	2564.82
27.08	2835.76
27.12	2492.58
27.16	2384.2
27.2	2582.89
27.24	2673.2
27.28	2348.08
27.32	2348.08
27.36	2095.21
27.4	2420.33
27.44	2293.89
27.48	2348.08
27.52	2619.01
27.56	2474.51
27.6	2348.08
27.64	2474.51
27.68	2727.38
27.72	2149.4
27.76	2311.95
27.8	2438.39
27.84	2546.76
27.88	2691.26
27.92	2546.76
27.96	2564.82
28	2185.52
28.04	2510.64
28.08	2962.19
28.12	2366.14
28.16	2330.02
28.2	2330.02
28.24	2492.58
28.28	2167.46
28.32	2131.33
28.36	2438.39
28.4	2637.07
28.44	2203.58
28.48	2167.46
28.52	2275.83
28.56	2420.33
28.6	2655.14
28.64	2456.45
28.68	2619.01
28.72	2745.45
28.76	2041.02
28.8	2095.21
28.84	2131.33
28.88	2438.39
28.92	2095.21
28.96	2257.77
29	2203.58
29.04	2167.46
29.08	2167.46
29.12	2474.51
29.16	2420.33
29.2	2492.58
29.24	2366.14
29.28	2348.08
29.32	2113.27
29.36	2456.45
29.4	2131.33
29.44	2492.58
29.48	2781.57
29.52	2384.2
29.56	2366.14
29.6	2293.89
29.64	2221.64
29.68	2004.9
29.72	2311.95
29.76	2546.76
29.8	1806.21
29.84	1860.4
29.88	1896.53
29.92	2203.58
29.96	2456.45
30	2348.08
30.04	2420.33
30.08	2077.15
30.12	1878.46
30.16	1932.65
30.2	2257.77
30.24	1752.03
30.28	2149.4
30.32	2311.95
30.36	1950.71
30.4	1932.65
30.44	2095.21
30.48	1896.53
30.52	2004.9
30.56	2059.08
30.6	1986.84
30.64	1896.53
30.68	2059.08
30.72	1986.84
30.76	2185.52
30.8	2257.77
30.84	2203.58
30.88	2167.46
30.92	1914.59
30.96	2293.89
31	2239.71
31.04	1968.77
31.08	2185.52
31.12	2149.4
31.16	1715.9
31.2	1806.21
31.24	2203.58
31.28	2004.9
31.32	1932.65
31.36	1824.28
31.4	2022.96
31.44	2077.15
31.48	1661.72
31.52	1643.66
31.56	1842.34
31.6	2167.46
31.64	1535.28
31.68	2113.27
31.72	1824.28
31.76	1788.15
31.8	1842.34
31.84	1733.97
31.88	1643.66
31.92	1878.46
31.96	1878.46
32	1896.53
32.04	2059.08
32.08	1914.59
32.12	1806.21
32.16	1914.59
32.2	1770.09
32.24	1914.59
32.28	2311.95
32.32	1896.53
32.36	1914.59
32.4	1733.97
32.44	1752.03
32.48	1770.09
32.52	1752.03
32.56	1788.15
32.6	1679.78
32.64	1878.46
32.68	1553.34
32.72	1697.84
32.76	1679.78
32.8	1444.97
32.84	1968.77
32.88	1643.66
32.92	1806.21
32.96	1968.77
33	1661.72
33.04	1661.72
33.08	1625.59
33.12	1788.15
33.16	1553.34
33.2	1408.85
33.24	1589.47
33.28	1246.29
33.32	1553.34
33.36	1806.21
33.4	1770.09
33.44	1499.16
33.48	1571.41
33.52	1661.72
33.56	1354.66
33.6	1806.21
33.64	1733.97
33.68	1535.28
33.72	1481.1
33.76	1535.28
33.8	1625.59
33.84	1481.1
33.88	1625.59
33.92	1932.65
33.96	1481.1
34	1535.28
34.04	1607.53
34.08	1661.72
34.12	1733.97
34.16	1481.1
34.2	1643.66
34.24	1770.09
34.28	1625.59
34.32	1571.41
34.36	1553.34
34.4	1968.77
34.44	1643.66
34.48	1535.28
34.52	1553.34
34.56	1806.21
34.6	1589.47
34.64	1210.16
34.68	1571.41
34.72	1697.84
34.76	1571.41
34.8	1571.41
34.84	1426.91
34.88	1318.54
34.92	1607.53
34.96	1408.85
35	1426.91
35.04	1372.72
35.08	1282.41
35.12	1444.97
35.16	1733.97
35.2	1517.22
35.24	1535.28
35.28	1607.53
35.32	1318.54
35.36	1499.16
35.4	1282.41
35.44	1408.85
35.48	1553.34
35.52	1824.28
35.56	1354.66
35.6	1444.97
35.64	1318.54
35.68	1210.16
35.72	1408.85
35.76	1426.91
35.8	1661.72
35.84	1408.85
35.88	1463.03
35.92	1499.16
35.96	1481.1
36	1499.16
36.04	1697.84
36.08	1517.22
36.12	1499.16
36.16	1481.1
36.2	1661.72
36.24	1282.41
36.28	1607.53
36.32	1463.03
36.36	1553.34
36.4	1228.23
36.44	1192.1
36.48	1625.59
36.52	1336.6
36.56	1408.85
36.6	1246.29
36.64	1607.53
36.68	1625.59
36.72	1083.73
36.76	1607.53
36.8	1408.85
36.84	1571.41
36.88	1607.53
36.92	1354.66
36.96	1137.92
37	1625.59
37.04	1499.16
37.08	1679.78
37.12	1390.79
37.16	1372.72
37.2	1372.72
37.24	1119.85
37.28	1390.79
37.32	1535.28
37.36	1643.66
37.4	1246.29
37.44	1372.72
37.48	1192.1
37.52	1155.98
37.56	1517.22
37.6	1137.92
37.64	1336.6
37.68	1481.1
37.72	1517.22
37.76	1553.34
37.8	1444.97
37.84	1372.72
37.88	1318.54
37.92	1011.48
37.96	1174.04
38	1246.29
38.04	1300.47
38.08	1517.22
38.12	1065.67
38.16	1336.6
38.2	1210.16
38.24	1408.85
38.28	1571.41
38.32	957.294
38.36	1499.16
38.4	1571.41
38.44	1264.35
38.48	1155.98
38.52	1390.79
38.56	1264.35
38.6	1264.35
38.64	1137.92
38.68	1282.41
38.72	1408.85
38.76	1336.6
38.8	1155.98
38.84	1354.66
38.88	1192.1
38.92	1661.72
38.96	1246.29
39	1192.1
39.04	1354.66
39.08	1390.79
39.12	1119.85
39.16	1300.47
39.2	1282.41
39.24	1119.85
39.28	1047.6
39.32	993.418
39.36	1318.54
39.4	1318.54
39.44	1029.54
39.48	1192.1
39.52	1372.72
39.56	1426.91
39.6	1318.54
39.64	1083.73
39.68	1481.1
39.72	1463.03
39.76	1300.47
39.8	1390.79
39.84	1463.03
39.88	1499.16
39.92	1426.91
39.96	1228.23
40	1589.47
40.04	1282.41
40.08	1372.72
40.12	1246.29
40.16	1625.59
40.2	1571.41
40.24	1137.92
40.28	1390.79
40.32	1300.47
40.36	1336.6
40.4	1300.47
40.44	1264.35
40.48	1318.54
40.52	1210.16
40.56	1318.54
40.6	1192.1
40.64	1336.6
40.68	1210.16
40.72	1011.48
40.76	1246.29
40.8	1264.35
40.84	1264.35
40.88	1246.29
40.92	1264.35
40.96	1571.41
41	1029.54
41.04	1174.04
41.08	1517.22
41.12	1300.47
41.16	1300.47
41.2	1246.29
41.24	1246.29
41.28	1101.79
41.32	1228.23
41.36	1426.91
41.4	1083.73
41.44	1174.04
41.48	1282.41
41.52	1390.79
41.56	1101.79
41.6	1300.47
41.64	1192.1
41.68	1282.41
41.72	1029.54
41.76	1119.85
41.8	1174.04
41.84	1155.98
41.88	993.418
41.92	993.418
41.96	1137.92
42	1390.79
42.04	1210.16
42.08	1210.16
42.12	1155.98
42.16	1336.6
42.2	1210.16
42.24	1426.91
42.28	1192.1
42.32	1119.85
42.36	1228.23
42.4	1065.67
42.44	1065.67
42.48	1155.98
42.52	1192.1
42.56	1246.29
42.6	1210.16
42.64	1119.85
42.68	1101.79
42.72	1282.41
42.76	1174.04
42.8	1101.79
42.84	1390.79
42.88	1065.67
42.92	1083.73
42.96	957.294
43	1192.1
43.04	1318.54
43.08	1300.47
43.12	1011.48
43.16	1101.79
43.2	1137.92
43.24	1065.67
43.28	975.356
43.32	1137.92
43.36	1029.54
43.4	1029.54
43.44	1101.79
43.48	1119.85
43.52	1065.67
43.56	1336.6
43.6	1174.04
43.64	993.418
43.68	903.107
43.72	1282.41
43.76	993.418
43.8	1101.79
43.84	1318.54
43.88	993.418
43.92	1300.47
43.96	1065.67
44	1174.04
44.04	1228.23
44.08	1192.1
44.12	1174.04
44.16	1065.67
44.2	1535.28
44.24	1318.54
44.28	1155.98
44.32	957.294
44.36	1372.72
44.4	1029.54
44.44	1228.23
44.48	1155.98
44.52	1029.54
44.56	1426.91
44.6	993.418
44.64	1029.54
44.68	1101.79
44.72	1119.85
44.76	1137.92
44.8	1155.98
44.84	1047.6
44.88	975.356
44.92	830.859
44.96	975.356
45	1047.6
45.04	1083.73
45.08	1264.35
45.12	939.232
45.16	1119.85
45.2	1282.41
45.24	957.294
45.28	1047.6
45.32	939.232
45.36	1029.54
45.4	1101.79
45.44	957.294
45.48	1119.85
45.52	1119.85
45.56	939.232
45.6	1083.73
45.64	1011.48
45.68	830.859
45.72	866.983
45.76	975.356
45.8	1174.04
45.84	848.921
45.88	1264.35
45.92	975.356
45.96	885.045
46	1119.85
46.04	1029.54
46.08	939.232
46.12	1011.48
46.16	1119.85
46.2	1246.29
46.24	1155.98
46.28	903.107
46.32	1029.54
46.36	921.169
46.4	1083.73
46.44	903.107
46.48	1155.98
46.52	1065.67
46.56	1174.04
46.6	740.548
46.64	939.232
46.68	903.107
46.72	957.294
46.76	1137.92
46.8	939.232
46.84	903.107
46.88	1011.48
46.92	993.418
46.96	1011.48
47	1029.54
47.04	939.232
47.08	794.734
47.12	885.045
47.16	794.734
47.2	903.107
47.24	903.107
47.28	1083.73
47.32	1047.6
47.36	1318.54
47.4	794.734
47.44	903.107
47.48	921.169
47.52	1065.67
47.56	1047.6
47.6	975.356
47.64	1137.92
47.68	614.113
47.72	1065.67
47.76	993.418
47.8	975.356
47.84	1065.67
47.88	740.548
47.92	830.859
47.96	866.983
48	776.672
48.04	866.983
48.08	812.797
48.12	921.169
48.16	1192.1
48.2	957.294
48.24	848.921
48.28	812.797
48.32	866.983
48.36	939.232
48.4	1137.92
48.44	848.921
48.48	830.859
48.52	975.356
48.56	830.859
48.6	740.548
48.64	848.921
48.68	794.734
48.72	776.672
48.76	866.983
48.8	939.232
48.84	866.983
48.88	1029.54
48.92	776.672
48.96	975.356
49	740.548
49.04	957.294
49.08	758.61
49.12	776.672
49.16	903.107
49.2	794.734
49.24	903.107
49.28	776.672
49.32	758.61
49.36	740.548
49.4	848.921
49.44	722.486
49.48	740.548
49.52	848.921
49.56	794.734
49.6	758.61
49.64	939.232
49.68	1083.73
49.72	812.797
49.76	1047.6
49.8	794.734
49.84	830.859
49.88	866.983
49.92	866.983
49.96	885.045
50	1029.54
50.04	866.983
50.08	776.672
50.12	632.175
50.16	650.237
50.2	704.424
50.24	1083.73
50.28	794.734
50.32	903.107
50.36	596.051
50.4	650.237
50.44	686.362
50.48	848.921
50.52	975.356
50.56	812.797
50.6	740.548
50.64	812.797
50.68	596.051
50.72	614.113
50.76	812.797
50.8	830.859
50.84	830.859
50.88	921.169
50.92	740.548
50.96	596.051
51	830.859
51.04	866.983
51.08	686.362
51.12	848.921
51.16	668.299
51.2	650.237
51.24	722.486
51.28	523.802
51.32	632.175
51.36	686.362
51.4	632.175
51.44	921.169
51.48	614.113
51.52	794.734
51.56	866.983
51.6	812.797
51.64	812.797
51.68	939.232
51.72	921.169
51.76	704.424
51.8	830.859
51.84	830.859
51.88	740.548
51.92	758.61
51.96	776.672
52	704.424
52.04	758.61
52.08	704.424
52.12	668.299
52.16	632.175
52.2	632.175
52.24	614.113
52.28	722.486
52.32	812.797
52.36	939.232
52.4	740.548
52.44	668.299
52.48	848.921
52.52	704.424
52.56	830.859
52.6	794.734
52.64	632.175
52.68	704.424
52.72	632.175
52.76	740.548
52.8	866.983
52.84	794.734
52.88	903.107
52.92	686.362
52.96	776.672
53	722.486
53.04	650.237
53.08	577.989
53.12	758.61
53.16	722.486
53.2	505.74
53.24	830.859
53.28	541.864
53.32	848.921
53.36	848.921
53.4	812.797
53.44	722.486
53.48	523.802
53.52	704.424
53.56	686.362
53.6	614.113
53.64	668.299
53.68	668.299
53.72	650.237
53.76	740.548
53.8	830.859
53.84	668.299
53.88	722.486
53.92	794.734
53.96	559.927
54	740.548
54.04	866.983
54.08	614.113
54.12	614.113
54.16	559.927
54.2	830.859
54.24	722.486
54.28	758.61
54.32	577.989
54.36	794.734
54.4	812.797
54.44	577.989
54.48	704.424
54.52	686.362
54.56	668.299
54.6	650.237
54.64	523.802
54.68	650.237
54.72	632.175
54.76	758.61
54.8	596.051
54.84	722.486
54.88	632.175
54.92	758.61
54.96	740.548
55	794.734
55.04	812.797
55.08	541.864
55.12	596.051
55.16	686.362
55.2	614.113
55.24	632.175
55.28	505.74
55.32	632.175
55.36	523.802
55.4	614.113
55.44	758.61
55.48	632.175
55.52	740.548
55.56	848.921
55.6	794.734
55.64	758.61
55.68	722.486
55.72	487.678
55.76	722.486
55.8	614.113
55.84	704.424
55.88	704.424
55.92	812.797
55.96	885.045
56	758.61
56.04	577.989
56.08	559.927
56.12	596.051
56.16	541.864
56.2	577.989
56.24	541.864
56.28	885.045
56.32	577.989
56.36	577.989
56.4	577.989
56.44	704.424
56.48	812.797
56.52	848.921
56.56	740.548
56.6	650.237
56.64	596.051
56.68	794.734
56.72	722.486
56.76	758.61
56.8	668.299
56.84	632.175
56.88	794.734
56.92	812.797
56.96	632.175
57	614.113
57.04	776.672
57.08	596.051
57.12	505.74
57.16	668.299
57.2	523.802
57.24	722.486
57.28	469.616
57.32	668.299
57.36	650.237
57.4	505.74
57.44	650.237
57.48	686.362
57.52	704.424
57.56	614.113
57.6	559.927
57.64	686.362
57.68	523.802
57.72	614.113
57.76	596.051
57.8	505.74
57.84	686.362
57.88	469.616
57.92	650.237
57.96	559.927
58	487.678
58.04	650.237
58.08	596.051
58.12	668.299
58.16	469.616
58.2	559.927
58.24	541.864
58.28	668.299
58.32	740.548
58.36	632.175
58.4	848.921
58.44	614.113
58.48	523.802
58.52	722.486
58.56	632.175
58.6	577.989
58.64	541.864
58.68	686.362
58.72	596.051
58.76	505.74
58.8	740.548
58.84	668.299
58.88	523.802
58.92	469.616
58.96	451.554
59	794.734
59.04	812.797
59.08	523.802
59.12	577.989
59.16	541.864
59.2	451.554
59.24	523.802
59.28	487.678
59.32	559.927
59.36	505.74
59.4	596.051
59.44	559.927
59.48	523.802
59.52	541.864
59.56	397.367
59.6	379.305
59.64	632.175
59.68	776.672
59.72	505.74
59.76	632.175
59.8	704.424
59.84	523.802
59.88	650.237
59.92	596.051
59.96	668.299
60	812.797
60	270.932