File: program/database/experiments/MU/xrd/930(924)_ppo_chloranil_liftfsi_for_xrd_0/xrd.TXT
Sample
Comments
Filename	C:\Data\西出研\梅木\210930オペ\PPOChloranil_2θ_θ.raw
Goniometer	SmartLab(In-plane)
Attachment	Zステージ単独
Monochromater	None
X	0
Y	0
Z	0.05294
ScanningMode	2Theta/Theta
ScanningType	Continuos Scanning
X-Ray	40kV/30mA
入射スリット	2/3deg
受光スリット1	20.000mm
受光スリット2	20.000mm
Cu_K-beta
Start	10
Stop	90
Step	0.01
Speed	10.4018
Offset	0
10	64109.9
10.06	65254.1
10.12	64265.9
10.18	64664.7
10.24	65306.1
10.3	65930.2
10.36	65739.5
10.42	65843.5
10.48	64820.7
10.54	66467.6
10.6	67507.8
10.66	66849
10.72	66346.3
10.78	68860.1
10.84	68860.1
10.9	67698.5
10.96	66953.1
11.02	68183.9
11.08	67854.6
11.14	69952.3
11.2	69137.4
11.26	70767.1
11.32	69293.5
11.38	70489.7
11.44	72968.8
11.5	71079.1
11.56	74113
11.62	72171.3
11.68	73436.9
11.74	71789.9
11.8	73246.2
11.86	72275.3
11.92	74078.3
11.98	74858.4
12.04	73957
12.1	75239.9
12.16	76574.8
12.22	72760.8
12.28	75517.2
12.34	74581.1
12.4	76124
12.46	78689.8
12.52	75343.9
12.58	77302.9
12.64	78689.8
12.7	76366.7
12.76	78949.8
12.82	76973.5
12.88	77597.6
12.94	78880.5
13	78273.7
13.06	78065.7
13.12	79834
13.18	80683.5
13.24	79608.6
13.3	79955.3
13.36	80250.1
13.42	79175.2
13.48	80718.1
13.54	82001
13.6	82798.5
13.66	82001
13.72	80718.1
13.78	81359.6
13.84	83578.6
13.9	82070.4
13.96	83231.9
14.02	80544.8
14.08	79938
14.14	81255.6
14.2	82625.1
14.26	82850.5
14.32	83977.4
14.38	83023.9
14.44	82729.2
14.5	81463.6
14.56	81602.3
14.62	83700
14.68	83526.6
14.74	82243.7
14.8	83006.5
14.86	81758.3
14.92	81376.9
14.98	82053
15.04	81255.6
15.1	82053
15.16	83405.3
15.22	81272.9
15.28	81775.7
15.34	80631.5
15.4	81723.6
15.46	80180.7
15.52	80510.1
15.58	81810.3
15.64	80683.5
15.7	81723.6
15.76	80891.5
15.82	78481.8
15.88	80822.2
15.94	80683.5
16	78689.8
16.06	79660.6
16.12	79348.6
16.18	78967.2
16.24	76453.4
16.3	77493.6
16.36	75326.5
16.42	79816.6
16.48	76834.8
16.54	79435.3
16.6	76834.8
16.66	77649.6
16.72	76089.3
16.78	76852.1
16.84	76384
16.9	76921.5
16.96	75153.2
17.02	75517.2
17.08	75153.2
17.14	75465.2
17.2	72587.4
17.26	75638.6
17.32	73748.9
17.38	72535.4
17.44	73176.8
17.5	74269
17.56	71945.9
17.62	72067.3
17.68	71061.8
17.74	72674.1
17.8	72812.8
17.86	70125.6
17.92	70541.7
17.98	73575.6
18.04	69501.5
18.1	70957.8
18.16	70368.3
18.22	71339.2
18.28	68756
18.34	69605.5
18.4	69761.6
18.46	69016.1
18.52	69761.6
18.58	69570.9
18.64	68773.4
18.7	70541.7
18.76	67577.2
18.82	68218.6
18.88	67750.5
18.94	69380.2
19	69865.6
19.06	67455.8
19.12	67507.8
19.18	66276.9
19.24	67455.8
19.3	68721.4
19.36	65236.8
19.42	67785.2
19.48	68444
19.54	68600
19.6	65063.4
19.66	64994.1
19.72	66831.7
19.78	66935.7
19.84	64786
19.9	65860.9
19.96	66467.6
20.02	63988.5
20.08	65202.1
20.14	65375.5
20.2	65722.2
20.26	66641
20.32	65132.7
20.38	64890
20.44	62809.7
20.5	64404.6
20.56	62861.7
20.62	63451.1
20.68	64994.1
20.74	64647.3
20.8	63953.9
20.86	64422
20.92	64005.9
20.98	64768.7
21.04	63555.1
21.1	63451.1
21.16	61405.4
21.22	63052.4
21.28	62879
21.34	62515
21.4	63381.8
21.46	61960.2
21.52	60087.9
21.58	62688.3
21.64	63468.5
21.7	62671
21.76	63087.1
21.82	61717.5
21.88	61942.9
21.94	60972
22	60365.2
22.06	60139.9
22.12	61890.8
22.18	58718.3
22.24	61509.4
22.3	63035
22.36	60538.6
22.42	60243.9
22.48	61284.1
22.54	58770.3
22.6	59463.8
22.66	59654.4
22.72	58874.3
22.78	59377.1
22.84	58510.3
22.9	57608.8
22.96	60157.2
23.02	59342.4
23.08	57088.7
23.14	59013
23.2	57626.1
23.26	57782.1
23.32	56187.2
23.38	57730.1
23.44	57730.1
23.5	58492.9
23.56	56932.6
23.62	56135.2
23.68	55909.8
23.74	56447.2
23.8	56256.5
23.86	58284.9
23.92	55649.8
23.98	55719.1
24.04	54089.5
24.1	57071.3
24.16	55337.7
24.22	53985.5
24.28	54297.5
24.34	54332.2
24.4	53898.8
24.46	55892.5
24.52	52529.2
24.58	54280.2
24.64	53066.6
24.7	51714.4
24.76	51454.3
24.82	53222.7
24.88	51246.3
24.94	50414.2
25	52633.2
25.06	50206.1
25.12	49235.3
25.18	49720.7
25.24	49252.6
25.3	49651.4
25.36	48801.9
25.42	49079.3
25.48	49131.3
25.54	50882.2
25.6	47640.3
25.66	47744.4
25.72	48212.4
25.78	47068.2
25.84	46496.1
25.9	45750.7
25.96	46808.2
26.02	47172.3
26.08	46842.9
26.14	44329.1
26.2	44918.5
26.26	45733.3
26.32	43427.6
26.38	45456
26.44	45109.2
26.5	43011.5
26.56	43670.3
26.62	44259.8
26.68	44935.9
26.74	44259.8
26.8	41139.2
26.86	43635.6
26.92	43479.6
26.98	41659.3
27.04	41711.3
27.1	40948.5
27.16	41329.9
27.22	42734.2
27.28	41711.3
27.34	41676.6
27.4	41867.3
27.46	40359.1
27.52	40081.7
27.58	41694
27.64	39717.6
27.7	40775.1
27.76	38348.1
27.82	38608.1
27.88	39041.5
27.94	39613.6
28	38573.4
28.06	38590.8
28.12	39440.2
28.18	38036
28.24	38261.4
28.3	38122.7
28.36	37463.9
28.42	38174.7
28.48	38452.1
28.54	36822.4
28.6	37914.6
28.66	38434.7
28.72	37134.5
28.78	36822.4
28.84	36753.1
28.9	36389
28.96	36077
29.02	35591.6
29.08	35886.3
29.14	35210.2
29.2	34447.4
29.26	35314.2
29.32	35764.9
29.38	35522.2
29.44	34638.1
29.5	35782.3
29.56	34950.1
29.62	32973.8
29.68	34118
29.74	34776.8
29.8	34499.4
29.86	34464.7
29.92	34672.7
29.98	33424.5
30.04	33961.9
30.1	34118
30.16	33129.8
30.22	34222
30.28	32176.3
30.34	33459.2
30.4	34551.4
30.46	32887.1
30.52	31465.5
30.58	32505.7
30.64	32159
30.7	33251.2
30.76	32471
30.82	33285.8
30.88	31084.1
30.94	30512
31	31378.8
31.06	31101.4
31.12	31430.8
31.18	31812.2
31.24	31968.3
31.3	31188.1
31.36	31084.1
31.42	31222.8
31.48	30529.3
31.54	30720
31.6	30425.3
31.66	31118.8
31.72	30980.1
31.78	29697.2
31.84	31517.5
31.9	30200
31.96	30182.6
32.02	30702.7
32.08	29506.5
32.14	31032.1
32.2	30304
32.26	29714.5
32.32	29749.2
32.38	29125.1
32.44	30130.6
32.5	29298.5
32.56	29367.8
32.62	28605
32.68	30304
32.74	29298.5
32.8	30147.9
32.86	29627.9
32.92	27928.9
32.98	29073.1
33.04	28830.4
33.1	28310.3
33.16	29194.4
33.22	29315.8
33.28	30165.3
33.34	28726.4
33.4	27183.4
33.46	26715.3
33.52	27218.1
33.58	29194.4
33.64	27408.8
33.7	26628.7
33.76	28917.1
33.82	27755.5
33.88	27911.6
33.94	27564.8
34	27339.5
34.06	27426.1
34.12	26958.1
34.18	27443.5
34.24	27322.1
34.3	27391.5
34.36	27634.2
34.42	26594
34.48	27079.4
34.54	25519.1
34.6	26698
34.66	26819.4
34.72	27235.4
34.78	27131.4
34.84	26333.9
34.9	26646
34.96	26732.7
35.02	27790.2
35.08	24877.7
35.14	26646
35.2	25709.8
35.26	26108.6
35.32	26264.6
35.38	25900.5
35.44	25831.2
35.5	25293.8
35.56	25380.4
35.62	26143.2
35.68	25779.2
35.74	25865.9
35.8	25467.1
35.86	24704.3
35.92	25103.1
35.98	25432.5
36.04	25120.4
36.1	25744.5
36.16	24773.7
36.22	24773.7
36.28	25085.7
36.34	23958.9
36.4	24756.3
36.46	25345.8
36.52	24236.2
36.58	24548.3
36.64	24843
36.7	24548.3
36.76	24981.7
36.82	24531
36.88	24097.6
36.94	24166.9
37	24062.9
37.06	23802.8
37.12	23421.4
37.18	23664.1
37.24	23889.5
37.3	23802.8
37.36	25311.1
37.42	23508.1
37.48	22797.3
37.54	24392.3
37.6	24149.6
37.66	22658.6
37.72	23542.8
37.78	24028.2
37.84	23577.5
37.9	23993.5
37.96	23334.8
38.02	23924.2
38.08	24357.6
38.14	23594.8
38.2	23542.8
38.26	23698.8
38.32	23577.5
38.38	22606.6
38.44	23404.1
38.5	22537.3
38.56	23594.8
38.62	22953.4
38.68	22849.3
38.74	22624
38.8	22554.6
38.86	22450.6
38.92	22814.7
38.98	23577.5
39.04	23490.8
39.1	21930.5
39.16	21965.2
39.22	22624
39.28	22485.3
39.34	23092
39.4	21739.8
39.46	21219.7
39.52	21254.4
39.58	21687.8
39.64	22710.6
39.7	22190.6
39.76	22814.7
39.82	22502.6
39.88	22450.6
39.94	21982.5
40	22069.2
40.06	22884
40.12	21514.4
40.18	21947.8
40.24	22155.9
40.3	21081
40.36	22242.6
40.42	21861.2
40.48	21479.8
40.54	21306.4
40.6	21774.5
40.66	21341.1
40.72	22259.9
40.78	20682.3
40.84	22346.6
40.9	20699.6
40.96	22745.3
41.02	22259.9
41.08	21809.2
41.14	22138.5
41.2	22676
41.26	22173.2
41.32	22034.5
41.38	21670.5
41.44	22450.6
41.5	22849.3
41.56	22901.3
41.62	22207.9
41.68	22155.9
41.74	21947.8
41.8	22641.3
41.86	21999.9
41.92	22658.6
41.98	21861.2
42.04	21843.8
42.1	22519.9
42.16	21635.8
42.22	22017.2
42.28	21809.2
42.34	22051.9
42.4	21462.4
42.46	20734.3
42.52	22277.2
42.58	21687.8
42.64	20873
42.7	20370.2
42.76	21531.8
42.82	21375.7
42.88	21427.8
42.94	19226
43	19520.8
43.06	20214.2
43.12	21358.4
43.18	20612.9
43.24	20543.6
43.3	20682.3
43.36	19590.1
43.42	20821
43.48	19746.1
43.54	20491.6
43.6	20751.6
43.66	20352.9
43.72	20283.6
43.78	19780.8
43.84	19676.8
43.9	19590.1
43.96	19503.4
44.02	20439.6
44.08	20318.2
44.14	19451.4
44.2	19624.8
44.26	20543.6
44.32	19070
44.38	20370.2
44.44	20040.8
44.5	19555.4
44.56	19451.4
44.62	18931.3
44.68	19728.8
44.74	19468.7
44.8	19295.4
44.86	19954.2
44.92	18671.3
44.98	19884.8
45.04	19642.1
45.1	19330.1
45.16	19278
45.22	18827.3
45.28	19018
45.34	19226
45.4	19746.1
45.46	18723.3
45.52	18966
45.58	18584.6
45.64	19295.4
45.7	20179.5
45.76	19087.3
45.82	18844.6
45.88	19087.3
45.94	18532.6
46	19347.4
46.06	19347.4
46.12	18966
46.18	18636.6
46.24	18966
46.3	18341.9
46.36	18393.9
46.42	17457.7
46.48	17769.8
46.54	18081.8
46.6	18584.6
46.66	18099.2
46.72	18047.2
46.78	18619.3
46.84	18601.9
46.9	18359.2
46.96	17873.8
47.02	18688.6
47.08	17059
47.14	18393.9
47.2	19018
47.26	18012.5
47.32	18740.6
47.38	18619.3
47.44	18688.6
47.5	18671.3
47.56	19191.4
47.62	18775.3
47.68	17232.4
47.74	18428.6
47.8	18549.9
47.86	18463.2
47.92	17787.1
47.98	19018
48.04	17856.5
48.1	17076.3
48.16	17960.5
48.22	17007
48.28	16937.6
48.34	16798.9
48.4	16851
48.46	16868.3
48.52	17596.4
48.58	16798.9
48.64	16330.9
48.7	16244.2
48.76	16729.6
48.82	16989.6
48.88	17353.7
48.94	16955
49	15585.4
49.06	16972.3
49.12	18671.3
49.18	21549.1
49.24	21011.7
49.3	21479.8
49.36	22190.6
49.42	20803.6
49.48	19191.4
49.54	22502.6
49.6	20266.2
49.66	20352.9
49.72	19018
49.78	18099.2
49.84	18515.2
49.9	17267
49.96	17509.7
50.02	17492.4
50.08	17319
50.14	17665.8
50.2	17076.3
50.26	16868.3
50.32	16088.2
50.38	16400.2
50.44	15758.8
50.5	15169.3
50.56	15585.4
50.62	15585.4
50.68	16070.8
50.74	14805.3
50.8	15186.7
50.86	16122.8
50.92	15984.1
50.98	15273.3
51.04	15897.5
51.1	15325.4
51.16	15724.1
51.22	15048
51.28	14389.2
51.34	15516.1
51.4	15672.1
51.46	16140.2
51.52	14527.9
51.58	15204
51.64	15290.7
51.7	14666.6
51.76	15533.4
51.82	15221.3
51.88	14666.6
51.94	14059.8
52	14250.5
52.06	14839.9
52.12	14839.9
52.18	14267.8
52.24	14666.6
52.3	13817.1
52.36	14354.5
52.42	14319.8
52.48	13158.3
52.54	14042.5
52.6	13539.7
52.66	14059.8
52.72	14944
52.78	14025.1
52.84	14233.2
52.9	13054.3
52.96	13695.7
53.02	13002.3
53.08	12551.5
53.14	13453
53.2	13505
53.26	12534.2
53.32	13487.7
53.38	13643.7
53.44	13574.4
53.5	12863.6
53.56	13661.1
53.62	12118.1
53.68	12898.3
53.74	13106.3
53.8	13505
53.86	12395.5
53.92	12170.1
53.98	12638.2
54.04	12759.6
54.1	12066.1
54.16	12152.8
54.22	12447.5
54.28	12083.5
54.34	12100.8
54.4	11944.8
54.46	12239.5
54.52	11823.4
54.58	12620.9
54.64	12672.9
54.7	11632.7
54.76	11736.7
54.82	12482.2
54.88	12222.1
54.94	11944.8
55	12031.4
55.06	11823.4
55.12	11719.4
55.18	12308.8
55.24	11476.7
55.3	12152.8
55.36	11702
55.42	12135.5
55.48	11632.7
55.54	10921.9
55.6	11528.7
55.66	11528.7
55.72	11182
55.78	11095.3
55.84	11216.6
55.9	10765.9
55.96	11251.3
56.02	10315.1
56.08	11372.7
56.14	10661.9
56.2	11736.7
56.26	12620.9
56.32	11996.8
56.38	12204.8
56.44	12343.5
56.5	13886.4
56.56	21115.7
56.62	18237.9
56.68	12048.8
56.74	11962.1
56.8	11008.6
56.86	10003.1
56.92	9812.39
56.98	10055.1
57.04	9621.69
57.1	10280.5
57.16	10488.5
57.22	10384.5
57.28	9535
57.34	9795.05
57.4	9708.37
57.46	9465.66
57.52	9344.3
57.58	9604.35
57.64	9621.69
57.7	9430.99
57.76	9153.6
57.82	9743.04
57.88	9188.28
57.94	9881.73
58	10141.8
58.06	9448.32
58.12	9604.35
58.18	9396.31
58.24	10384.5
58.3	9361.64
58.36	10020.4
58.42	9760.38
58.48	9292.29
58.54	8876.22
58.6	9795.05
58.66	10020.4
58.72	9777.71
58.78	9569.68
58.84	10176.4
58.9	9743.04
58.96	9552.34
59.02	9656.36
59.08	9240.29
59.14	9587.01
59.2	10037.8
59.26	9292.29
59.32	9188.28
59.38	9309.63
59.44	9326.97
59.5	10193.8
59.56	9847.06
59.62	9014.91
59.68	9708.37
59.74	9326.97
59.8	9344.3
59.86	9743.04
59.92	9448.32
59.98	9604.35
60.04	9205.61
60.1	9517.67
60.16	9587.01
60.22	9274.96
60.28	8217.44
60.34	8841.55
60.4	8893.56
60.46	8806.88
60.52	9552.34
60.58	9812.39
60.64	8893.56
60.7	8616.18
60.76	9344.3
60.82	9396.31
60.88	8789.54
60.94	9326.97
61	9032.25
61.06	8824.21
61.12	8806.88
61.18	9257.62
61.24	8876.22
61.3	8945.57
61.36	8980.24
61.42	9222.95
61.48	8269.45
61.54	9292.29
61.6	8460.15
61.66	8182.77
61.72	8962.9
61.78	9136.27
61.84	9222.95
61.9	9118.93
61.96	8512.16
62.02	8546.83
62.08	8858.89
62.14	9170.94
62.2	8789.54
62.26	8442.81
62.32	8442.81
62.38	8304.12
62.44	8113.42
62.5	8494.82
62.56	8772.2
62.62	8269.45
62.68	8529.49
62.74	8858.89
62.8	8529.49
62.86	8286.79
62.92	8338.79
62.98	8633.51
63.04	8893.56
63.1	8286.79
63.16	8286.79
63.22	8182.77
63.28	8737.53
63.34	8217.44
63.4	9743.04
63.46	8217.44
63.52	9066.92
63.58	8754.87
63.64	7801.37
63.7	8806.88
63.76	8269.45
63.82	8564.17
63.88	8789.54
63.94	8217.44
64	8477.49
64.06	8304.12
64.12	8737.53
64.18	8581.5
64.24	8182.77
64.3	8252.11
64.36	8494.82
64.42	8338.79
64.48	8338.79
64.54	8113.42
64.6	7818.7
64.66	7749.36
64.72	7974.73
64.78	8633.51
64.84	8494.82
64.9	8546.83
64.96	8078.75
65.02	8442.81
65.08	8512.16
65.14	8338.79
65.2	8425.48
65.26	8737.53
65.32	8581.5
65.38	8564.17
65.44	8477.49
65.5	8338.79
65.56	8026.74
65.62	8633.51
65.68	8494.82
65.74	8304.12
65.8	7870.71
65.86	7940.06
65.92	7575.99
65.98	9240.29
66.04	8321.46
66.1	8598.84
66.16	8130.76
66.22	8026.74
66.28	9257.62
66.34	8234.78
66.4	8130.76
66.46	8373.47
66.52	8425.48
66.58	8165.43
66.64	8182.77
66.7	8044.08
66.76	8044.08
66.82	8252.11
66.88	7922.72
66.94	8113.42
67	8148.09
67.06	7853.38
67.12	8598.84
67.18	7593.33
67.24	7732.02
67.3	7888.05
67.36	7714.69
67.42	7437.3
67.48	7437.3
67.54	7732.02
67.6	8165.43
67.66	7593.33
67.72	7853.38
67.78	7836.04
67.84	8200.1
67.9	7957.39
67.96	7385.29
68.02	7437.3
68.08	7645.34
68.14	7784.03
68.2	7471.98
68.26	7281.28
68.32	7506.65
68.38	7367.96
68.44	8148.09
68.5	7523.98
68.56	7662.68
68.62	7055.9
68.68	7419.97
68.74	8130.76
68.8	7645.34
68.86	7333.28
68.92	7402.63
68.98	7385.29
69.04	8165.43
69.1	7402.63
69.16	7593.33
69.22	6743.85
69.28	7610.67
69.34	7766.69
69.4	6865.2
69.46	7714.69
69.52	7905.38
69.58	7662.68
69.64	7523.98
69.7	7957.39
69.76	7541.32
69.82	8061.41
69.88	7749.36
69.94	7957.39
70	7749.36
70.06	7385.29
70.12	7957.39
70.18	7940.06
70.24	7177.26
70.3	8304.12
70.36	7732.02
70.42	7784.03
70.48	7922.72
70.54	7714.69
70.6	7818.7
70.66	7385.29
70.72	7506.65
70.78	7454.64
70.84	7489.31
70.9	8477.49
70.96	7593.33
71.02	7575.99
71.08	6969.22
71.14	7350.62
71.2	6778.52
71.26	8304.12
71.32	7055.9
71.38	7749.36
71.44	7350.62
71.5	7575.99
71.56	7454.64
71.62	7367.96
71.68	8044.08
71.74	7454.64
71.8	7714.69
71.86	7419.97
71.92	7593.33
71.98	7471.98
72.04	7888.05
72.1	7714.69
72.16	7055.9
72.22	7940.06
72.28	7506.65
72.34	6917.21
72.4	6847.87
72.46	7957.39
72.52	7298.61
72.58	7385.29
72.64	7211.93
72.7	7610.67
72.76	7437.3
72.82	7125.25
72.88	7350.62
72.94	7125.25
73	7506.65
73.06	7506.65
73.12	7558.66
73.18	7437.3
73.24	6986.56
73.3	7246.6
73.36	7298.61
73.42	7298.61
73.48	7489.31
73.54	7489.31
73.6	7714.69
73.66	7298.61
73.72	7749.36
73.78	7125.25
73.84	7367.96
73.9	7593.33
73.96	7870.71
74.02	7593.33
74.08	7784.03
74.14	7766.69
74.2	7732.02
74.26	7818.7
74.32	7662.68
74.38	7853.38
74.44	7766.69
74.5	7940.06
74.56	7940.06
74.62	8234.78
74.68	7437.3
74.74	7836.04
74.8	7801.37
74.86	8078.75
74.92	7454.64
74.98	7662.68
75.04	8200.1
75.1	7732.02
75.16	7523.98
75.22	7784.03
75.28	7766.69
75.34	8182.77
75.4	8234.78
75.46	7766.69
75.52	8165.43
75.58	8945.57
75.64	8200.1
75.7	8217.44
75.76	8633.51
75.82	8338.79
75.88	9517.67
75.94	10176.4
76	13435.7
76.06	11667.4
76.12	11008.6
76.18	12360.8
76.24	11424.7
76.3	12083.5
76.36	15048
76.42	11615.4
76.48	10731.2
76.54	11112.6
76.6	9465.66
76.66	9881.73
76.72	9257.62
76.78	9257.62
76.84	9378.98
76.9	8390.8
76.96	8841.55
77.02	8858.89
77.08	8026.74
77.14	8460.15
77.2	8252.11
77.26	8425.48
77.32	8616.18
77.38	8408.14
77.44	7801.37
77.5	8702.86
77.56	8806.88
77.62	8633.51
77.68	7974.73
77.74	8633.51
77.8	8581.5
77.86	8477.49
77.92	8806.88
77.98	8754.87
78.04	8113.42
78.1	8338.79
78.16	8564.17
78.22	8442.81
78.28	8390.8
78.34	8061.41
78.4	8425.48
78.46	8460.15
78.52	7818.7
78.58	8876.22
78.64	7870.71
78.7	8408.14
78.76	8633.51
78.82	7853.38
78.88	8148.09
78.94	9066.92
79	8962.9
79.06	8234.78
79.12	8148.09
79.18	8113.42
79.24	7957.39
79.3	8252.11
79.36	8616.18
79.42	8252.11
79.48	8425.48
79.54	8494.82
79.6	8044.08
79.66	8442.81
79.72	7922.72
79.78	8200.1
79.84	7818.7
79.9	7662.68
79.96	8338.79
80.02	8390.8
80.08	8182.77
80.14	8702.86
80.2	8321.46
80.26	8616.18
80.32	8425.48
80.38	7992.07
80.44	7992.07
80.5	8165.43
80.56	8044.08
80.62	7957.39
80.68	8425.48
80.74	8321.46
80.8	8338.79
80.86	7888.05
80.92	7853.38
80.98	8200.1
81.04	8390.8
81.1	8581.5
81.16	8494.82
81.22	8460.15
81.28	8096.08
81.34	8217.44
81.4	8321.46
81.46	8442.81
81.52	7992.07
81.58	8148.09
81.64	7628
81.7	8442.81
81.76	8113.42
81.82	8165.43
81.88	8373.47
81.94	7766.69
82	7628
82.06	8425.48
82.12	8286.79
82.18	7836.04
82.24	7784.03
82.3	8269.45
82.36	7281.28
82.42	7697.35
82.48	7714.69
82.54	7784.03
82.6	7784.03
82.66	7766.69
82.72	7593.33
82.78	7818.7
82.84	7003.89
82.9	7628
82.96	7593.33
83.02	7836.04
83.08	7992.07
83.14	7974.73
83.2	7628
83.26	8148.09
83.32	8182.77
83.38	7836.04
83.44	7038.57
83.5	7905.38
83.56	7333.28
83.62	7714.69
83.68	7229.27
83.74	7992.07
83.8	7974.73
83.86	7922.72
83.92	7784.03
83.98	8390.8
84.04	7593.33
84.1	7506.65
84.16	7471.98
84.22	7263.94
84.28	7870.71
84.34	7437.3
84.4	8564.17
84.46	7732.02
84.52	7628
84.58	7905.38
84.64	7385.29
84.7	7957.39
84.76	7281.28
84.82	7246.6
84.88	7350.62
84.94	7593.33
85	7541.32
85.06	7177.26
85.12	7853.38
85.18	6986.56
85.24	7680.01
85.3	7523.98
85.36	7992.07
85.42	6986.56
85.48	7142.58
85.54	7107.91
85.6	7575.99
85.66	7350.62
85.72	7801.37
85.78	7090.58
85.84	7714.69
85.9	7367.96
85.96	7194.59
86.02	7350.62
86.08	7038.57
86.14	6917.21
86.2	7662.68
86.26	7350.62
86.32	7090.58
86.38	7385.29
86.44	8009.4
86.5	7419.97
86.56	7055.9
86.62	7107.91
86.68	6709.18
86.74	7090.58
86.8	6258.43
86.86	7038.57
86.92	6986.56
86.98	7090.58
87.04	7021.23
87.1	7333.28
87.16	7107.91
87.22	7177.26
87.28	6674.5
87.34	6882.54
87.4	7003.89
87.46	6605.16
87.52	6518.48
87.58	6934.55
87.64	6951.88
87.7	7055.9
87.76	6917.21
87.82	7107.91
87.88	6865.2
87.94	6483.8
88	6813.19
88.06	7281.28
88.12	6830.53
88.18	6691.84
88.24	7333.28
88.3	6951.88
88.36	7315.95
88.42	6882.54
88.48	7177.26
88.54	7298.61
88.6	7558.66
88.66	6414.46
88.72	6570.48
88.78	6882.54
88.84	6969.22
88.9	7003.89
88.96	6587.82
89.02	6518.48
89.08	6882.54
89.14	6483.8
89.2	7177.26
89.26	6986.56
89.32	7055.9
89.38	6761.18
89.44	6362.45
89.5	6743.85
89.56	6761.18
89.62	6674.5
89.68	6466.47
89.74	6986.56
89.8	6951.88
89.86	8182.77
89.92	7818.7
89.98	9604.35
90	9448.32