File: database/experiments/MU/xrd/903_ppo_chloranil_liftfsi_for_xrd_30/xrd.TXT
Sample
Comments
Filename	C:\Data\西出研\梅木\210903\PPOChloranilLiTfSI30wt_2θ_θ.raw
Goniometer	SmartLab(In-plane)
Attachment	Zステージ単独
Monochromater	None
X	0
Y	0
Z	-0.35756
ScanningMode	2Theta/Theta
ScanningType	Continuos Scanning
X-Ray	40kV/30mA
入射スリット	2/3deg
受光スリット1	20.000mm
受光スリット2	20.000mm
Cu_K-beta
Start	10
Stop	90
Step	0.01
Speed	10.4018
Offset	0
10	24947
10.06	26646
10.12	27010.1
10.18	26646
10.24	26594
10.3	26073.9
10.36	25935.2
10.42	26975.4
10.48	27391.5
10.54	28136.9
10.6	27599.5
10.66	29558.5
10.72	31742.9
10.78	35470.2
10.84	39648.3
10.9	32297.7
10.96	27582.2
11.02	27062.1
11.08	27062.1
11.14	27616.8
11.2	26438
11.26	27599.5
11.32	27547.5
11.38	25987.2
11.44	26871.4
11.5	27079.4
11.56	26750
11.62	27079.4
11.68	26316.6
11.74	26906
11.8	27374.1
11.86	28015.6
11.92	27547.5
11.98	27339.5
12.04	27772.9
12.1	27183.4
12.16	26992.7
12.22	27980.9
12.28	28084.9
12.34	29853.2
12.4	27530.2
12.46	27478.1
12.52	28414.3
12.58	26403.3
12.64	27547.5
12.7	28969.1
12.76	27824.9
12.82	28345
12.88	27582.2
12.94	28709
13	28466.3
13.06	28899.7
13.12	27998.2
13.18	28882.4
13.24	29211.8
13.3	28570.3
13.36	28414.3
13.42	29749.2
13.48	29558.5
13.54	29333.1
13.6	29107.8
13.66	30200
13.72	28709
13.78	30269.3
13.84	29593.2
13.9	29801.2
13.96	28899.7
14.02	29835.9
14.08	31032.1
14.14	29073.1
14.2	29575.8
14.26	28293
14.32	29957.2
14.38	29107.8
14.44	29471.8
14.5	28397
14.56	28188.9
14.62	29073.1
14.68	29454.5
14.74	29558.5
14.8	28345
14.86	28622.3
14.92	28275.6
14.98	29194.4
15.04	27946.2
15.1	28726.4
15.16	28778.4
15.22	28917.1
15.28	27616.8
15.34	28969.1
15.4	29038.4
15.46	28015.6
15.52	29957.2
15.58	28639.7
15.64	28414.3
15.7	27460.8
15.76	27443.5
15.82	28327.6
15.88	28362.3
15.94	28050.2
16	26784.7
16.06	27443.5
16.12	27755.5
16.18	28154.3
16.24	27668.8
16.3	26975.4
16.36	26438
16.42	28293
16.48	27460.8
16.54	27651.5
16.6	27599.5
16.66	27408.8
16.72	26351.3
16.78	27842.2
16.84	26628.7
16.9	28345
16.96	29679.9
17.02	32713.7
17.08	37481.2
17.14	48299.1
17.2	54991
17.26	40445.8
17.32	30147.9
17.38	26750
17.44	27443.5
17.5	26316.6
17.56	25241.8
17.62	26594
17.68	26871.4
17.74	25259.1
17.8	25363.1
17.86	25657.8
17.92	25900.5
17.98	25883.2
18.04	25467.1
18.1	27010.1
18.16	27980.9
18.22	30095.9
18.28	34846.1
18.34	38816.1
18.4	34326
18.46	26940.7
18.52	25571.1
18.58	25623.2
18.64	24877.7
18.7	25692.5
18.76	24947
18.82	25848.5
18.88	28240.9
18.94	31309.5
19	40549.8
19.06	55667.1
19.12	75759.9
19.18	70749.7
19.24	38140
19.3	28223.6
19.36	26628.7
19.42	27443.5
19.48	29939.9
19.54	30650.7
19.6	25813.9
19.66	23369.4
19.72	22780
19.78	23196.1
19.84	22606.6
19.9	23404.1
19.96	23976.2
20.02	22554.6
20.08	22866.7
20.14	22086.5
20.2	22918.7
20.26	22780
20.32	22467.9
20.38	21826.5
20.44	21913.2
20.5	22624
20.56	22519.9
20.62	22710.6
20.68	21861.2
20.74	21843.8
20.8	22086.5
20.86	21930.5
20.92	21895.8
20.98	21237.1
21.04	22121.2
21.1	22069.2
21.16	22797.3
21.22	21809.2
21.28	22311.9
21.34	23230.7
21.4	22606.6
21.46	21913.2
21.52	22866.7
21.58	22901.3
21.64	24531
21.7	25519.1
21.76	23386.8
21.82	21583.8
21.88	21601.1
21.94	20890.3
22	21323.7
22.06	20907.7
22.12	20300.9
22.18	20266.2
22.24	21670.5
22.3	21011.7
22.36	21254.4
22.42	20959.7
22.48	22329.2
22.54	21167.7
22.6	21514.4
22.66	20543.6
22.72	21150.4
22.78	21965.2
22.84	21497.1
22.9	21341.1
22.96	23109.4
23.02	26177.9
23.08	32002.9
23.14	38573.4
23.2	32401.7
23.26	24201.6
23.32	20838.3
23.38	21219.7
23.44	20942.3
23.5	19971.5
23.56	20456.9
23.62	19260.7
23.68	19624.8
23.74	19676.8
23.8	18671.3
23.86	19260.7
23.92	20456.9
23.98	20179.5
24.04	19243.4
24.1	19590.1
24.16	19607.4
24.22	19503.4
24.28	19572.8
24.34	19954.2
24.4	21115.7
24.46	22121.2
24.52	26646
24.58	35296.9
24.64	43826.3
24.7	40029.7
24.76	29853.2
24.82	30095.9
24.88	37567.9
24.94	45924
25	34568.7
25.06	23958.9
25.12	20006.2
25.18	20404.9
25.24	19642.1
25.3	19867.5
25.36	18393.9
25.42	17908.5
25.48	17301.7
25.54	16989.6
25.6	17232.4
25.66	16746.9
25.72	17371
25.78	16764.3
25.84	16851
25.9	16521.6
25.96	17249.7
26.02	16937.6
26.08	15533.4
26.14	16278.9
26.2	15776.1
26.26	16365.5
26.32	15602.7
26.38	16209.5
26.44	15776.1
26.5	16434.9
26.56	16105.5
26.62	15984.1
26.68	15845.4
26.74	15689.4
26.8	16521.6
26.86	15360
26.92	15082.6
26.98	15342.7
27.04	15342.7
27.1	15290.7
27.16	15065.3
27.22	15412
27.28	15568.1
27.34	15481.4
27.4	15117.3
27.46	14094.5
27.52	13817.1
27.58	15256
27.64	14891.9
27.7	14129.1
27.76	14735.9
27.82	14475.9
27.88	14441.2
27.94	14718.6
28	13921.1
28.06	14441.2
28.12	14805.3
28.18	14146.5
28.24	14285.2
28.3	14111.8
28.36	13487.7
28.42	14337.2
28.48	13574.4
28.54	13973.1
28.6	14527.9
28.66	15342.7
28.72	16088.2
28.78	18601.9
28.84	22502.6
28.9	25675.2
28.96	22606.6
29.02	16642.9
29.08	14874.6
29.14	13834.4
29.2	13591.7
29.26	13713.1
29.32	13730.4
29.38	13487.7
29.44	13401
29.5	13713.1
29.56	13973.1
29.62	12707.6
29.68	13747.7
29.74	13903.8
29.8	13747.7
29.86	13418.4
29.92	13019.6
29.98	13262.3
30.04	13054.3
30.1	12880.9
30.16	13470.4
30.22	12811.6
30.28	11962.1
30.34	12759.6
30.4	13349
30.46	12256.8
30.52	12222.1
30.58	13453
30.64	12620.9
30.7	13123.6
30.76	12568.9
30.82	13366.3
30.88	12551.5
30.94	12742.2
31	11702
31.06	12568.9
31.12	12655.6
31.18	12828.9
31.24	12204.8
31.3	12204.8
31.36	12811.6
31.42	12655.6
31.48	13019.6
31.54	12655.6
31.6	12204.8
31.66	12707.6
31.72	13002.3
31.78	12759.6
31.84	13574.4
31.9	15758.8
31.96	18099.2
32.02	20456.9
32.08	16989.6
32.14	13574.4
32.2	12915.6
32.26	11875.4
32.32	12135.5
32.38	12776.9
32.44	12222.1
32.5	12568.9
32.56	12308.8
32.62	12516.9
32.68	13019.6
32.74	12066.1
32.8	12516.9
32.86	12447.5
32.92	13505
32.98	15186.7
33.04	13886.4
33.1	15446.7
33.16	16764.3
33.22	20006.2
33.28	29818.6
33.34	38833.5
33.4	35851.6
33.46	25519.1
33.52	16157.5
33.58	13522.4
33.64	12811.6
33.7	12048.8
33.76	11528.7
33.82	11996.8
33.88	12048.8
33.94	10956.6
34	12014.1
34.06	12326.2
34.12	13349
34.18	14250.5
34.24	14198.5
34.3	13279.7
34.36	11719.4
34.42	11736.7
34.48	11684.7
34.54	11702
34.6	11407.3
34.66	12447.5
34.72	13643.7
34.78	15238.7
34.84	14423.9
34.9	13383.7
34.96	11771.4
35.02	11650
35.08	11580.7
35.14	11632.7
35.2	11494
35.26	11546
35.32	10800.6
35.38	11580.7
35.44	11008.6
35.5	10973.9
35.56	10297.8
35.62	10471.2
35.68	10852.6
35.74	10852.6
35.8	10731.2
35.86	11164.6
35.92	11303.3
35.98	11077.9
36.04	11303.3
36.1	12135.5
36.16	12066.1
36.22	11632.7
36.28	12014.1
36.34	13123.6
36.4	13817.1
36.46	13331.7
36.52	12828.9
36.58	11060.6
36.64	10661.9
36.7	11095.3
36.76	10627.2
36.82	11286
36.88	11251.3
36.94	11130
37	12274.2
37.06	12846.3
37.12	14631.9
37.18	14545.2
37.24	12898.3
37.3	11910.1
37.36	10280.5
37.42	10921.9
37.48	10817.9
37.54	10661.9
37.6	10471.2
37.66	10384.5
37.72	10609.9
37.78	10696.5
37.84	10869.9
37.9	12100.8
37.96	14111.8
38.02	16608.2
38.08	19486.1
38.14	23594.8
38.2	27062.1
38.26	20612.9
38.32	17475.1
38.38	13730.4
38.44	14961.3
38.5	13297
38.56	12551.5
38.62	10107.1
38.68	10713.9
38.74	10869.9
38.8	10228.5
38.86	10835.2
38.92	10921.9
38.98	9968.41
39.04	9968.41
39.1	9465.66
39.16	10679.2
39.22	10159.1
39.28	9933.74
39.34	10315.1
39.4	9829.72
39.46	10245.8
39.52	10280.5
39.58	9656.36
39.64	9656.36
39.7	9483
39.76	10055.1
39.82	9604.35
39.88	9535
39.94	9326.97
40	9292.29
40.06	10055.1
40.12	9413.65
40.18	8858.89
40.24	9673.69
40.3	9743.04
40.36	9205.61
40.42	9847.06
40.48	9430.99
40.54	9257.62
40.6	9847.06
40.66	9326.97
40.72	9743.04
40.78	10124.4
40.84	11823.4
40.9	11684.7
40.96	11008.6
41.02	11095.3
41.08	10661.9
41.14	10089.8
41.2	10228.5
41.26	9430.99
41.32	9812.39
41.38	8962.9
41.44	8945.57
41.5	9483
41.56	9483
41.62	9500.33
41.68	10072.4
41.74	9777.71
41.8	9032.25
41.86	9257.62
41.92	9361.64
41.98	9326.97
42.04	10003.1
42.1	9465.66
42.16	9257.62
42.22	9881.73
42.28	9812.39
42.34	10488.5
42.4	10921.9
42.46	10748.5
42.52	9708.37
42.58	10332.5
42.64	9535
42.7	9361.64
42.76	10679.2
42.82	9933.74
42.88	9899.07
42.94	10055.1
43	9881.73
43.06	10089.8
43.12	10627.2
43.18	9413.65
43.24	9621.69
43.3	9326.97
43.36	9465.66
43.42	8910.89
43.48	9257.62
43.54	8546.83
43.6	8962.9
43.66	8217.44
43.72	8668.19
43.78	9413.65
43.84	9656.36
43.9	10055.1
43.96	11424.7
44.02	10748.5
44.08	10817.9
44.14	9344.3
44.2	8997.58
44.26	9864.39
44.32	11043.3
44.38	12256.8
44.44	14007.8
44.5	12395.5
44.56	10540.5
44.62	9413.65
44.68	9309.63
44.74	8910.89
44.8	8390.8
44.86	8512.16
44.92	8113.42
44.98	9517.67
45.04	8980.24
45.1	9656.36
45.16	8928.23
45.22	8962.9
45.28	8408.14
45.34	8685.52
45.4	8096.08
45.46	8702.86
45.52	8356.13
45.58	8252.11
45.64	8564.17
45.7	8356.13
45.76	8598.84
45.82	7558.66
45.88	8668.19
45.94	8096.08
46	7905.38
46.06	8321.46
46.12	7593.33
46.18	8373.47
46.24	8356.13
46.3	7836.04
46.36	8408.14
46.42	7853.38
46.48	8286.79
46.54	7714.69
46.6	8182.77
46.66	8113.42
46.72	8962.9
46.78	9136.27
46.84	10332.5
46.9	9569.68
46.96	9118.93
47.02	9413.65
47.08	8286.79
47.14	8772.2
47.2	8442.81
47.26	8650.85
47.32	9708.37
47.38	9326.97
47.44	9170.94
47.5	8442.81
47.56	8546.83
47.62	8096.08
47.68	8546.83
47.74	7992.07
47.8	7315.95
47.86	8286.79
47.92	8269.45
47.98	8217.44
48.04	7818.7
48.1	8338.79
48.16	7905.38
48.22	8910.89
48.28	9344.3
48.34	10089.8
48.4	9465.66
48.46	8772.2
48.52	9309.63
48.58	8910.89
48.64	7471.98
48.7	7957.39
48.76	7836.04
48.82	7402.63
48.88	7333.28
48.94	7367.96
49	6587.82
49.06	7281.28
49.12	7021.23
49.18	7333.28
49.24	8009.4
49.3	7714.69
49.36	9483
49.42	8460.15
49.48	9396.31
49.54	8928.23
49.6	7853.38
49.66	8494.82
49.72	7801.37
49.78	8373.47
49.84	8858.89
49.9	8650.85
49.96	9465.66
50.02	8876.22
50.08	10817.9
50.14	7957.39
50.2	8876.22
50.26	7732.02
50.32	7784.03
50.38	8026.74
50.44	7853.38
50.5	7038.57
50.56	7263.94
50.62	7003.89
50.68	7246.6
50.74	7732.02
50.8	7558.66
50.86	7125.25
50.92	7593.33
50.98	7055.9
51.04	7940.06
51.1	7090.58
51.16	7905.38
51.22	8252.11
51.28	8373.47
51.34	8113.42
51.4	7749.36
51.46	8269.45
51.52	7281.28
51.58	7350.62
51.64	7350.62
51.7	7229.27
51.76	6743.85
51.82	6865.2
51.88	6258.43
51.94	6154.41
52	6518.48
52.06	5963.71
52.12	6986.56
52.18	6258.43
52.24	6813.19
52.3	6709.18
52.36	6691.84
52.42	6501.14
52.48	6275.77
52.54	5929.04
52.6	6015.72
52.66	5911.7
52.72	6241.09
52.78	6206.42
52.84	5790.35
52.9	5460.96
52.96	5859.69
53.02	6137.08
53.08	6085.07
53.14	5599.65
53.2	5686.33
53.26	5911.7
53.32	5721
53.38	6189.08
53.44	6518.48
53.5	6518.48
53.56	6518.48
53.62	6189.08
53.68	5963.71
53.74	6033.06
53.8	5374.27
53.86	5651.66
53.92	5790.35
53.98	6015.72
54.04	6483.8
54.1	7419.97
54.16	7575.99
54.22	6986.56
54.28	6622.49
54.34	5790.35
54.4	5391.61
54.46	5530.3
54.52	5703.67
54.58	4958.2
54.64	5443.62
54.7	5530.3
54.76	5825.02
54.82	5010.21
54.88	5044.88
54.94	5512.97
55	5322.27
55.06	4663.48
55.12	4871.52
55.18	5721
55.24	5304.93
55.3	5530.3
55.36	5530.3
55.42	5270.26
55.48	5443.62
55.54	5252.92
55.6	5079.56
55.66	5460.96
55.72	5825.02
55.78	5426.28
55.84	5079.56
55.9	5096.89
55.96	5044.88
56.02	4767.5
56.08	5183.57
56.14	5027.55
56.2	4836.85
56.26	4940.87
56.32	5218.25
56.38	5564.98
56.44	5703.67
56.5	5495.63
56.56	5079.56
56.62	5374.27
56.68	5079.56
56.74	4836.85
56.8	5148.9
56.86	5183.57
56.92	4802.17
56.98	4836.85
57.04	4958.2
57.1	4646.15
57.16	4646.15
57.22	4663.48
57.28	4490.12
57.34	4871.52
57.4	4871.52
57.46	5148.9
57.52	5339.6
57.58	4611.47
57.64	4732.83
57.7	4282.08
57.76	4975.54
57.82	4646.15
57.88	4438.11
57.94	4698.16
58	4299.42
58.06	4698.16
58.12	4490.12
58.18	4420.77
58.24	4559.47
58.3	4836.85
58.36	4559.47
58.42	5079.56
58.48	5235.58
58.54	4680.82
58.6	4542.13
58.66	4940.87
58.72	4316.76
58.78	4594.14
58.84	4975.54
58.9	4490.12
58.96	4594.14
59.02	4247.41
59.08	4386.1
59.14	4455.45
59.2	4455.45
59.26	4143.39
59.32	4438.11
59.38	3883.35
59.44	3952.69
59.5	4368.77
59.56	4490.12
59.62	4854.18
59.68	4784.84
59.74	5356.94
59.8	5512.97
59.86	5668.99
59.92	5773.01
59.98	5443.62
60.04	4958.2
60.1	4784.84
60.16	4507.46
60.22	4507.46
60.28	4178.07
60.34	4455.45
60.4	3692.65
60.46	4576.8
60.52	4056.71
60.58	4143.39
60.64	3848.67
60.7	4108.72
60.76	4368.77
60.82	3727.32
60.88	3848.67
60.94	4230.07
61	3970.03
61.06	4559.47
61.12	4680.82
61.18	4507.46
61.24	4767.5
61.3	5027.55
61.36	4680.82
61.42	4542.13
61.48	4576.8
61.54	4420.77
61.6	4455.45
61.66	3709.98
61.72	4108.72
61.78	3727.32
61.84	4195.4
61.9	4143.39
61.96	4108.72
62.02	4022.04
62.08	3692.65
62.14	3779.33
62.2	4004.7
62.26	4368.77
62.32	4074.05
62.38	4368.77
62.44	4282.08
62.5	4264.75
62.56	4126.06
62.62	4004.7
62.68	4143.39
62.74	3987.37
62.8	3623.3
62.86	3900.68
62.92	3952.69
62.98	3987.37
63.04	3952.69
63.1	3883.35
63.16	3900.68
63.22	4022.04
63.28	4212.74
63.34	4160.73
63.4	4022.04
63.46	3657.97
63.52	4108.72
63.58	4195.4
63.64	3796.67
63.7	3935.36
63.76	3623.3
63.82	3553.96
63.88	3814
63.94	3605.97
64	3761.99
64.06	4264.75
64.12	4091.38
64.18	4403.44
64.24	3484.61
64.3	4195.4
64.36	3779.33
64.42	3831.34
64.48	4004.7
64.54	4472.78
64.6	4316.76
64.66	4195.4
64.72	4542.13
64.78	4438.11
64.84	4091.38
64.9	4282.08
64.96	4386.1
65.02	4143.39
65.08	4004.7
65.14	3623.3
65.2	4143.39
65.26	4178.07
65.32	4455.45
65.38	4247.41
65.44	5131.57
65.5	4992.87
65.56	4455.45
65.62	4455.45
65.68	4178.07
65.74	3935.36
65.8	3935.36
65.86	4299.42
65.92	4178.07
65.98	4143.39
66.04	4542.13
66.1	4420.77
66.16	4004.7
66.22	3935.36
66.28	3605.97
66.34	3727.32
66.4	3727.32
66.46	3657.97
66.52	3605.97
66.58	4056.71
66.64	3744.66
66.7	3259.24
66.76	3519.28
66.82	4022.04
66.88	4143.39
66.94	3918.02
67	3796.67
67.06	3935.36
67.12	3744.66
67.18	3709.98
67.24	4126.06
67.3	3571.29
67.36	3484.61
67.42	4126.06
67.48	3744.66
67.54	3675.31
67.6	3571.29
67.66	3553.96
67.72	3935.36
67.78	3623.3
67.84	3935.36
67.9	3623.3
67.96	3207.23
68.02	3605.97
68.08	3623.3
68.14	3311.25
68.2	3744.66
68.26	4056.71
68.32	3883.35
68.38	3727.32
68.44	3588.63
68.5	3519.28
68.56	3189.89
68.62	3779.33
68.68	3866.01
68.74	3605.97
68.8	3918.02
68.86	3397.93
68.92	4126.06
68.98	3761.99
69.04	4178.07
69.1	3814
69.16	3883.35
69.22	3571.29
69.28	3831.34
69.34	4004.7
69.4	3900.68
69.46	3484.61
69.52	3831.34
69.58	3623.3
69.64	3328.58
69.7	3259.24
69.76	3692.65
69.82	3397.93
69.88	3883.35
69.94	3415.26
70	3588.63
70.06	3796.67
70.12	3172.56
70.18	3709.98
70.24	3311.25
70.3	3571.29
70.36	3311.25
70.42	3779.33
70.48	3605.97
70.54	3276.57
70.6	3345.92
70.66	3172.56
70.72	3363.26
70.78	3519.28
70.84	3675.31
70.9	3311.25
70.96	3155.22
71.02	3311.25
71.08	3120.55
71.14	3900.68
71.2	2721.81
71.26	3311.25
71.32	3796.67
71.38	3657.97
71.44	3588.63
71.5	3692.65
71.56	3224.56
71.62	3241.9
71.68	3449.94
71.74	3657.97
71.8	3259.24
71.86	3172.56
71.92	3467.27
71.98	3709.98
72.04	3588.63
72.1	3484.61
72.16	3449.94
72.22	3484.61
72.28	3935.36
72.34	3952.69
72.4	3623.3
72.46	3918.02
72.52	4074.05
72.58	4108.72
72.64	3744.66
72.7	3415.26
72.76	3952.69
72.82	3484.61
72.88	4056.71
72.94	3883.35
73	3571.29
73.06	3796.67
73.12	3640.64
73.18	3866.01
73.24	3484.61
73.3	3293.91
73.36	3640.64
73.42	3467.27
73.48	3814
73.54	3640.64
73.6	3605.97
73.66	3779.33
73.72	3657.97
73.78	3501.95
73.84	3727.32
73.9	3866.01
73.96	3900.68
74.02	3727.32
74.08	4299.42
74.14	4247.41
74.2	4386.1
74.26	4126.06
74.32	4247.41
74.38	4299.42
74.44	4386.1
74.5	3987.37
74.56	3883.35
74.62	3675.31
74.68	3848.67
74.74	4126.06
74.8	3605.97
74.86	3900.68
74.92	4247.41
74.98	3814
75.04	4108.72
75.1	4126.06
75.16	4316.76
75.22	4230.07
75.28	4039.37
75.34	4108.72
75.4	4074.05
75.46	4178.07
75.52	4594.14
75.58	3761.99
75.64	4750.17
75.7	4299.42
75.76	5218.25
75.82	10488.5
75.88	6535.81
75.94	6015.72
76	7333.28
76.06	7454.64
76.12	7506.65
76.18	7575.99
76.24	6691.84
76.3	7211.93
76.36	7281.28
76.42	6969.22
76.48	6431.79
76.54	6934.55
76.6	6223.76
76.66	6397.12
76.72	4888.86
76.78	5391.61
76.84	4975.54
76.9	4784.84
76.96	3918.02
77.02	4420.77
77.08	4368.77
77.14	3935.36
77.2	4906.19
77.26	4646.15
77.32	4230.07
77.38	4663.48
77.44	4611.47
77.5	4126.06
77.56	4299.42
77.62	4507.46
77.68	4507.46
77.74	4004.7
77.8	4212.74
77.86	4386.1
77.92	3814
77.98	3831.34
78.04	4195.4
78.1	4195.4
78.16	4334.09
78.22	4351.43
78.28	4230.07
78.34	4576.8
78.4	4108.72
78.46	4594.14
78.52	4195.4
78.58	4195.4
78.64	4438.11
78.7	4542.13
78.76	4819.51
78.82	4698.16
78.88	4594.14
78.94	4264.75
79	4542.13
79.06	4472.78
79.12	4056.71
79.18	4195.4
79.24	4334.09
79.3	3761.99
79.36	4316.76
79.42	4056.71
79.48	4992.87
79.54	4871.52
79.6	4732.83
79.66	4992.87
79.72	4472.78
79.78	4594.14
79.84	4230.07
79.9	4784.84
79.96	3987.37
80.02	4767.5
80.08	4420.77
80.14	4022.04
80.2	4056.71
80.26	3709.98
80.32	3970.03
80.38	4056.71
80.44	4039.37
80.5	4126.06
80.56	3779.33
80.62	3761.99
80.68	3779.33
80.74	3952.69
80.8	3900.68
80.86	3709.98
80.92	3536.62
80.98	3588.63
81.04	3779.33
81.1	4108.72
81.16	3831.34
81.22	3432.6
81.28	3761.99
81.34	3363.26
81.4	4039.37
81.46	3883.35
81.52	4230.07
81.58	4126.06
81.64	3952.69
81.7	4004.7
81.76	4230.07
81.82	3935.36
81.88	4316.76
81.94	3796.67
82	4056.71
82.06	4282.08
82.12	4386.1
82.18	3918.02
82.24	3796.67
82.3	3692.65
82.36	4282.08
82.42	4247.41
82.48	4039.37
82.54	4368.77
82.6	3831.34
82.66	4351.43
82.72	4334.09
82.78	3796.67
82.84	4438.11
82.9	4126.06
82.96	3709.98
83.02	4126.06
83.08	4074.05
83.14	3553.96
83.2	3831.34
83.26	3796.67
83.32	4143.39
83.38	3900.68
83.44	4091.38
83.5	3588.63
83.56	3571.29
83.62	3467.27
83.68	3640.64
83.74	3831.34
83.8	3935.36
83.86	3709.98
83.92	3449.94
83.98	3796.67
84.04	4039.37
84.1	3831.34
84.16	3363.26
84.22	3952.69
84.28	3848.67
84.34	3744.66
84.4	3779.33
84.46	3484.61
84.52	3761.99
84.58	3761.99
84.64	3605.97
84.7	3918.02
84.76	3657.97
84.82	3814
84.88	3900.68
84.94	3415.26
85	3727.32
85.06	3380.59
85.12	3519.28
85.18	3519.28
85.24	3970.03
85.3	3952.69
85.36	3970.03
85.42	3640.64
85.48	3727.32
85.54	3709.98
85.6	3571.29
85.66	3259.24
85.72	3657.97
85.78	3657.97
85.84	3640.64
85.9	3831.34
85.96	3866.01
86.02	3866.01
86.08	3415.26
86.14	3536.62
86.2	3623.3
86.26	3536.62
86.32	3241.9
86.38	3935.36
86.44	3588.63
86.5	3259.24
86.56	3501.95
86.62	3692.65
86.68	3623.3
86.74	3709.98
86.8	3501.95
86.86	3692.65
86.92	3259.24
86.98	3605.97
87.04	3189.89
87.1	3328.58
87.16	3328.58
87.22	3241.9
87.28	3814
87.34	3501.95
87.4	3085.87
87.46	3363.26
87.52	3293.91
87.58	3536.62
87.64	3172.56
87.7	3397.93
87.76	3137.88
87.82	3519.28
87.88	3553.96
87.94	3276.57
88	3519.28
88.06	3311.25
88.12	3467.27
88.18	3536.62
88.24	3571.29
88.3	3293.91
88.36	3484.61
88.42	3328.58
88.48	2791.16
88.54	3536.62
88.6	3623.3
88.66	3068.54
88.72	3189.89
88.78	3623.3
88.84	3657.97
88.9	3588.63
88.96	3831.34
89.02	3675.31
89.08	3744.66
89.14	2964.52
89.2	3345.92
89.26	3137.88
89.32	3675.31
89.38	3449.94
89.44	3207.23
89.5	3293.91
89.56	2981.86
89.62	3553.96
89.68	3189.89
89.74	3172.56
89.8	3484.61
89.86	2791.16
89.92	3120.55
89.98	3449.94
89.97	2981.86
90	2947.18