File: program/database/experiments/MU/xrd/1102/parallel/1029/xrd/100.TXT
Sample
Comments
Filename	C:\Data\西出研\梅木\20211102オペ\LiFTFSI20wt_04_0004_0099-1_C_2θ.raw
Goniometer	SmartLab(In-plane)
Attachment	標準Zステージ
Monochromater	None
X	0
Y	0
Z	0.01716
ScanningMode	2Theta
ScanningType	Continuos Scanning
X-Ray	40kV/30mA
入射スリット	0.300mm
受光スリット1	20.000mm
受光スリット2	20.000mm
None
Start	5
Stop	60
Step	0.02
Speed	21.6746
Theta	0
5	6953.93
5.04	7206.8
5.08	6971.99
5.12	6701.06
5.16	6646.87
5.2	6809.43
5.24	6177.25
5.28	6448.19
5.32	6917.8
5.36	6917.8
5.4	6646.87
5.44	6430.12
5.48	6574.62
5.52	6520.44
5.56	6412.06
5.6	6791.37
5.64	5870.2
5.68	6953.93
5.72	6773.31
5.76	6159.19
5.8	6357.88
5.84	6339.81
5.88	6394
5.92	6881.68
5.96	6050.82
6	6773.31
6.04	6195.32
6.08	6755.24
6.12	5996.63
6.16	6394
6.2	6430.12
6.24	6195.32
6.28	5852.14
6.32	5996.63
6.36	6123.07
6.4	6231.44
6.44	5635.39
6.48	6123.07
6.52	5906.32
6.56	5834.07
6.6	5816.01
6.64	5761.82
6.68	5779.89
6.72	6105.01
6.76	5707.64
6.8	5527.02
6.84	5274.15
6.88	6339.81
6.92	6141.13
6.96	5978.57
7	5328.33
7.04	5888.26
7.08	5888.26
7.12	5743.76
7.16	5960.51
7.2	5635.39
7.24	5653.45
7.28	5147.71
7.32	5292.21
7.36	5689.58
7.4	5201.9
7.44	5527.02
7.48	5400.58
7.52	6032.76
7.56	6141.13
7.6	5436.71
7.64	5545.08
7.68	5545.08
7.72	5545.08
7.76	5400.58
7.8	5563.14
7.84	5382.52
7.88	5617.33
7.92	5310.27
7.96	5454.77
8	6014.69
8.04	5364.46
8.08	6231.44
8.12	5707.64
8.16	5545.08
8.2	5761.82
8.24	5870.2
8.28	5707.64
8.32	5418.64
8.36	5382.52
8.4	5617.33
8.44	5219.96
8.48	5274.15
8.52	5346.4
8.56	5653.45
8.6	5599.27
8.64	5527.02
8.68	5725.7
8.72	5689.58
8.76	5581.2
8.8	5183.84
8.84	5436.71
8.88	5057.4
8.92	5581.2
8.96	5039.34
9	5436.71
9.04	5490.89
9.08	5201.9
9.12	5472.83
9.16	5075.46
9.2	5653.45
9.24	5183.84
9.28	5472.83
9.32	5274.15
9.36	5310.27
9.4	5653.45
9.44	5039.34
9.48	5888.26
9.52	5292.21
9.56	5436.71
9.6	5256.08
9.64	4967.09
9.68	5490.89
9.72	5328.33
9.76	5454.77
9.8	6177.25
9.84	5274.15
9.88	5274.15
9.92	5147.71
9.96	5545.08
10	5201.9
10.04	5581.2
10.08	5201.9
10.12	5599.27
10.16	5219.96
10.2	4985.15
10.24	5147.71
10.28	5165.77
10.32	5599.27
10.36	5382.52
10.4	4696.16
10.44	5129.65
10.48	5075.46
10.52	4949.03
10.56	5003.21
10.6	5201.9
10.64	5454.77
10.68	5527.02
10.72	5653.45
10.76	5581.2
10.8	5527.02
10.84	5382.52
10.88	5039.34
10.92	5436.71
10.96	5599.27
11	5274.15
11.04	5147.71
11.08	5256.08
11.12	5256.08
11.16	5400.58
11.2	5400.58
11.24	5238.02
11.28	5599.27
11.32	5003.21
11.36	5725.7
11.4	5454.77
11.44	5328.33
11.48	5328.33
11.52	5310.27
11.56	5328.33
11.6	4912.9
11.64	5888.26
11.68	5256.08
11.72	5454.77
11.76	4858.72
11.8	4714.22
11.84	5418.64
11.88	4804.53
11.92	5671.51
11.96	5617.33
12	5219.96
12.04	5653.45
12.08	5292.21
12.12	4623.91
12.16	5328.33
12.2	5057.4
12.24	5599.27
12.28	4804.53
12.32	5725.7
12.36	5689.58
12.4	4876.78
12.44	5292.21
12.48	4100.11
12.52	5021.28
12.56	5219.96
12.6	5147.71
12.64	5201.9
12.68	5617.33
12.72	5364.46
12.76	5292.21
12.8	5111.59
12.84	5635.39
12.88	5292.21
12.92	5310.27
12.96	5508.95
13	5653.45
13.04	5238.02
13.08	5003.21
13.12	5328.33
13.16	5346.4
13.2	5328.33
13.24	4858.72
13.28	4858.72
13.32	5039.34
13.36	5310.27
13.4	4750.34
13.44	4768.41
13.48	5219.96
13.52	5219.96
13.56	5093.53
13.6	5201.9
13.64	5346.4
13.68	5382.52
13.72	5364.46
13.76	5256.08
13.8	5472.83
13.84	4912.9
13.88	5436.71
13.92	5346.4
13.96	5346.4
14	5364.46
14.04	5129.65
14.08	5852.14
14.12	5057.4
14.16	5003.21
14.2	4949.03
14.24	5256.08
14.28	5201.9
14.32	5075.46
14.36	5310.27
14.4	5490.89
14.44	4804.53
14.48	5545.08
14.52	5527.02
14.56	5147.71
14.6	5364.46
14.64	5545.08
14.68	4840.66
14.72	5545.08
14.76	5707.64
14.8	4967.09
14.84	5219.96
14.88	4930.97
14.92	4551.66
14.96	4876.78
15	5075.46
15.04	4515.54
15.08	5599.27
15.12	5111.59
15.16	5418.64
15.2	5274.15
15.24	4768.41
15.28	4732.28
15.32	5400.58
15.36	4786.47
15.4	4840.66
15.44	5129.65
15.48	5129.65
15.52	4804.53
15.56	5274.15
15.6	5400.58
15.64	4840.66
15.68	5256.08
15.72	5057.4
15.76	4858.72
15.8	5147.71
15.84	5201.9
15.88	4985.15
15.92	5075.46
15.96	4949.03
16	5075.46
16.04	4786.47
16.08	4894.84
16.12	4533.6
16.16	5093.53
16.2	4804.53
16.24	4641.97
16.28	5075.46
16.32	5147.71
16.36	5201.9
16.4	4804.53
16.44	4949.03
16.48	5021.28
16.52	4858.72
16.56	5111.59
16.6	4858.72
16.64	4985.15
16.68	5129.65
16.72	4985.15
16.76	4786.47
16.8	4714.22
16.84	5111.59
16.88	4985.15
16.92	5075.46
16.96	4858.72
17	5707.64
17.04	4660.03
17.08	4768.41
17.12	5238.02
17.16	5057.4
17.2	5527.02
17.24	4804.53
17.28	4804.53
17.32	5075.46
17.36	4768.41
17.4	4930.97
17.44	4244.6
17.48	5147.71
17.52	4172.36
17.56	5021.28
17.6	5292.21
17.64	5039.34
17.68	4641.97
17.72	5527.02
17.76	4750.34
17.8	4750.34
17.84	5057.4
17.88	5057.4
17.92	4804.53
17.96	4732.28
18	5111.59
18.04	4930.97
18.08	4949.03
18.12	5075.46
18.16	5129.65
18.2	5238.02
18.24	4768.41
18.28	4587.79
18.32	4840.66
18.36	4660.03
18.4	5111.59
18.44	4641.97
18.48	5093.53
18.52	4768.41
18.56	4822.59
18.6	4696.16
18.64	5003.21
18.68	4407.16
18.72	5129.65
18.76	5093.53
18.8	4949.03
18.84	5003.21
18.88	4768.41
18.92	4623.91
18.96	5129.65
19	4497.47
19.04	4479.41
19.08	4587.79
19.12	4894.84
19.16	5003.21
19.2	4840.66
19.24	5093.53
19.28	4750.34
19.32	4822.59
19.36	4533.6
19.4	4660.03
19.44	5201.9
19.48	5075.46
19.52	4678.1
19.56	4858.72
19.6	4515.54
19.64	4479.41
19.68	4280.73
19.72	4479.41
19.76	4371.04
19.8	4298.79
19.84	4082.05
19.88	4371.04
19.92	4876.78
19.96	4497.47
20	4714.22
20.04	4208.48
20.08	4912.9
20.12	3955.61
20.16	4226.54
20.2	4407.16
20.24	4551.66
20.28	4262.67
20.32	4985.15
20.36	4334.92
20.4	4154.29
20.44	4298.79
20.48	4063.98
20.52	4118.17
20.56	4244.6
20.6	4497.47
20.64	4262.67
20.68	4082.05
20.72	4262.67
20.76	4425.23
20.8	4407.16
20.84	4967.09
20.88	4172.36
20.92	4334.92
20.96	4371.04
21	4443.29
21.04	4208.48
21.08	4190.42
21.12	3919.49
21.16	5057.4
21.2	3883.36
21.24	4045.92
21.28	4515.54
21.32	4100.11
21.36	4172.36
21.4	4172.36
21.44	4334.92
21.48	4479.41
21.52	4172.36
21.56	4009.8
21.6	3991.73
21.64	4515.54
21.68	4352.98
21.72	4136.23
21.76	4298.79
21.8	4118.17
21.84	4082.05
21.88	4190.42
21.92	4352.98
21.96	4208.48
22	4172.36
22.04	3720.8
22.08	3973.67
22.12	4515.54
22.16	3793.05
22.2	3937.55
22.24	4172.36
22.28	4316.85
22.32	3973.67
22.36	4100.11
22.4	3648.55
22.44	4316.85
22.48	3991.73
22.52	3955.61
22.56	3829.18
22.6	3558.24
22.64	3756.93
22.68	3847.24
22.72	3088.63
22.76	4063.98
22.8	3720.8
22.84	3504.06
22.88	4045.92
22.92	4569.72
22.96	3756.93
23	3829.18
23.04	4027.86
23.08	4027.86
23.12	3829.18
23.16	4136.23
23.2	4063.98
23.24	3684.68
23.28	3865.3
23.32	3323.44
23.36	4371.04
23.4	3612.43
23.44	3612.43
23.48	4082.05
23.52	3106.69
23.56	3630.49
23.6	3937.55
23.64	4045.92
23.68	3052.5
23.72	3684.68
23.76	4118.17
23.8	3648.55
23.84	3305.37
23.88	3756.93
23.92	3540.18
23.96	3793.05
24	3720.8
24.04	3467.93
24.08	3774.99
24.12	3648.55
24.16	3485.99
24.2	3648.55
24.24	3377.62
24.28	3142.81
24.32	3937.55
24.36	3720.8
24.4	3540.18
24.44	3323.44
24.48	3413.75
24.52	3612.43
24.56	3558.24
24.6	3558.24
24.64	3395.68
24.68	3576.31
24.72	3287.31
24.76	3630.49
24.8	3431.81
24.84	3251.19
24.88	3467.93
24.92	3504.06
24.96	3540.18
25	3124.75
25.04	2799.63
25.08	3251.19
25.12	3233.12
25.16	2926.07
25.2	3485.99
25.24	3088.63
25.28	3251.19
25.32	3215.06
25.36	2980.25
25.4	3178.94
25.44	2926.07
25.48	2799.63
25.52	3034.44
25.56	3016.38
25.6	3305.37
25.64	3197
25.68	3341.5
25.72	3269.25
25.76	2781.57
25.8	2709.32
25.84	3377.62
25.88	3178.94
25.92	3215.06
25.96	3540.18
26	2962.19
26.04	3034.44
26.08	3106.69
26.12	3124.75
26.16	3088.63
26.2	2799.63
26.24	3178.94
26.28	3106.69
26.32	2582.89
26.36	2962.19
26.4	2709.32
26.44	2799.63
26.48	2637.07
26.52	2709.32
26.56	2510.64
26.6	3052.5
26.64	2655.14
26.68	3106.69
26.72	2709.32
26.76	2564.82
26.8	2311.95
26.84	2619.01
26.88	3016.38
26.92	2908.01
26.96	2619.01
27	2655.14
27.04	2510.64
27.08	2564.82
27.12	2709.32
27.16	2745.45
27.2	2763.51
27.24	2492.58
27.28	2673.2
27.32	2962.19
27.36	2185.52
27.4	2619.01
27.44	2655.14
27.48	2474.51
27.52	2203.58
27.56	2420.33
27.6	2474.51
27.64	2456.45
27.68	2438.39
27.72	2438.39
27.76	2492.58
27.8	2203.58
27.84	2619.01
27.88	2059.08
27.92	2600.95
27.96	2564.82
28	3016.38
28.04	2600.95
28.08	2564.82
28.12	2510.64
28.16	2293.89
28.2	2293.89
28.24	2185.52
28.28	2275.83
28.32	2275.83
28.36	2384.2
28.4	2311.95
28.44	2149.4
28.48	2311.95
28.52	2384.2
28.56	2311.95
28.6	2384.2
28.64	2275.83
28.68	2438.39
28.72	2185.52
28.76	2348.08
28.8	2384.2
28.84	2221.64
28.88	2239.71
28.92	2239.71
28.96	2167.46
29	2330.02
29.04	2185.52
29.08	2095.21
29.12	1824.28
29.16	2492.58
29.2	2022.96
29.24	2330.02
29.28	1499.16
29.32	2293.89
29.36	1535.28
29.4	1860.4
29.44	2239.71
29.48	2041.02
29.52	2275.83
29.56	2095.21
29.6	2059.08
29.64	1824.28
29.68	2582.89
29.72	2311.95
29.76	2275.83
29.8	1968.77
29.84	2293.89
29.88	2004.9
29.92	1932.65
29.96	2113.27
30	2311.95
30.04	1842.34
30.08	1788.15
30.12	2059.08
30.16	2004.9
30.2	2239.71
30.24	2077.15
30.28	1950.71
30.32	2077.15
30.36	1752.03
30.4	1860.4
30.44	1752.03
30.48	2293.89
30.52	1914.59
30.56	1950.71
30.6	2239.71
30.64	1986.84
30.68	2059.08
30.72	2059.08
30.76	1986.84
30.8	1950.71
30.84	1788.15
30.88	1914.59
30.92	1914.59
30.96	1932.65
31	1733.97
31.04	2149.4
31.08	1842.34
31.12	1733.97
31.16	2203.58
31.2	1788.15
31.24	2131.33
31.28	1752.03
31.32	1806.21
31.36	2149.4
31.4	1697.84
31.44	1860.4
31.48	1842.34
31.52	1589.47
31.56	1878.46
31.6	1824.28
31.64	1589.47
31.68	2004.9
31.72	2131.33
31.76	1643.66
31.8	1733.97
31.84	2167.46
31.88	1914.59
31.92	1661.72
31.96	1697.84
32	1752.03
32.04	1788.15
32.08	1914.59
32.12	1950.71
32.16	1697.84
32.2	1752.03
32.24	1788.15
32.28	1643.66
32.32	1499.16
32.36	1932.65
32.4	1806.21
32.44	2077.15
32.48	1752.03
32.52	1860.4
32.56	1553.34
32.6	1589.47
32.64	1607.53
32.68	1571.41
32.72	1661.72
32.76	1968.77
32.8	1607.53
32.84	1715.9
32.88	1679.78
32.92	1517.22
32.96	1661.72
33	2167.46
33.04	1733.97
33.08	1661.72
33.12	1661.72
33.16	1679.78
33.2	1824.28
33.24	1715.9
33.28	1607.53
33.32	1824.28
33.36	1788.15
33.4	1896.53
33.44	2113.27
33.48	1535.28
33.52	1625.59
33.56	1914.59
33.6	1950.71
33.64	2004.9
33.68	1733.97
33.72	1661.72
33.76	1824.28
33.8	1499.16
33.84	1408.85
33.88	1444.97
33.92	1463.03
33.96	1661.72
34	1914.59
34.04	1571.41
34.08	1282.41
34.12	1535.28
34.16	1715.9
34.2	1788.15
34.24	1914.59
34.28	1426.91
34.32	1589.47
34.36	1661.72
34.4	1679.78
34.44	1715.9
34.48	1372.72
34.52	1535.28
34.56	1733.97
34.6	1643.66
34.64	1372.72
34.68	1697.84
34.72	1499.16
34.76	1354.66
34.8	1535.28
34.84	1733.97
34.88	1679.78
34.92	1643.66
34.96	1697.84
35	1372.72
35.04	1589.47
35.08	1390.79
35.12	1372.72
35.16	1607.53
35.2	1625.59
35.24	1390.79
35.28	1390.79
35.32	1354.66
35.36	1318.54
35.4	1354.66
35.44	1499.16
35.48	1228.23
35.52	1535.28
35.56	1137.92
35.6	1589.47
35.64	1408.85
35.68	1607.53
35.72	1535.28
35.76	1517.22
35.8	1444.97
35.84	1354.66
35.88	1715.9
35.92	1499.16
35.96	1625.59
36	1318.54
36.04	1589.47
36.08	1372.72
36.12	1354.66
36.16	1336.6
36.2	1390.79
36.24	1101.79
36.28	1643.66
36.32	1300.47
36.36	1625.59
36.4	1553.34
36.44	1336.6
36.48	1444.97
36.52	1390.79
36.56	1390.79
36.6	1137.92
36.64	1517.22
36.68	1336.6
36.72	1661.72
36.76	1300.47
36.8	1408.85
36.84	1553.34
36.88	1715.9
36.92	1336.6
36.96	1264.35
37	1264.35
37.04	1246.29
37.08	1463.03
37.12	1553.34
37.16	1300.47
37.2	1318.54
37.24	1499.16
37.28	1318.54
37.32	1083.73
37.36	1390.79
37.4	1264.35
37.44	1029.54
37.48	1137.92
37.52	1246.29
37.56	1246.29
37.6	1390.79
37.64	1300.47
37.68	1426.91
37.72	1282.41
37.76	1264.35
37.8	1408.85
37.84	1426.91
37.88	1463.03
37.92	1517.22
37.96	1390.79
38	1390.79
38.04	1228.23
38.08	1336.6
38.12	1264.35
38.16	1607.53
38.2	1318.54
38.24	1318.54
38.28	1282.41
38.32	1553.34
38.36	1155.98
38.4	1282.41
38.44	1228.23
38.48	1481.1
38.52	1174.04
38.56	1625.59
38.6	1372.72
38.64	1354.66
38.68	1282.41
38.72	1481.1
38.76	1192.1
38.8	1137.92
38.84	1192.1
38.88	1589.47
38.92	1210.16
38.96	1192.1
39	1155.98
39.04	1589.47
39.08	921.169
39.12	1065.67
39.16	1553.34
39.2	1011.48
39.24	1228.23
39.28	1228.23
39.32	1372.72
39.36	1192.1
39.4	1155.98
39.44	1661.72
39.48	1119.85
39.52	1300.47
39.56	1444.97
39.6	1174.04
39.64	1264.35
39.68	1336.6
39.72	1426.91
39.76	1318.54
39.8	1318.54
39.84	1155.98
39.88	1083.73
39.92	1463.03
39.96	1137.92
40	1174.04
40.04	1174.04
40.08	1300.47
40.12	1155.98
40.16	921.169
40.2	1390.79
40.24	1137.92
40.28	1137.92
40.32	1535.28
40.36	1228.23
40.4	1029.54
40.44	1101.79
40.48	1101.79
40.52	1137.92
40.56	1210.16
40.6	758.61
40.64	1463.03
40.68	1372.72
40.72	1192.1
40.76	1336.6
40.8	1210.16
40.84	1390.79
40.88	993.418
40.92	1408.85
40.96	1246.29
41	1336.6
41.04	1029.54
41.08	1318.54
41.12	921.169
41.16	1137.92
41.2	1029.54
41.24	1318.54
41.28	1210.16
41.32	1318.54
41.36	1119.85
41.4	1174.04
41.44	1101.79
41.48	1246.29
41.52	1192.1
41.56	1264.35
41.6	866.983
41.64	1372.72
41.68	1408.85
41.72	1264.35
41.76	1192.1
41.8	1192.1
41.84	1137.92
41.88	1210.16
41.92	1192.1
41.96	921.169
42	1264.35
42.04	1174.04
42.08	1119.85
42.12	1119.85
42.16	1174.04
42.2	1318.54
42.24	1282.41
42.28	1137.92
42.32	1029.54
42.36	1228.23
42.4	1101.79
42.44	939.232
42.48	1372.72
42.52	1047.6
42.56	1047.6
42.6	1083.73
42.64	993.418
42.68	1083.73
42.72	1192.1
42.76	1246.29
42.8	1300.47
42.84	1372.72
42.88	1264.35
42.92	1174.04
42.96	866.983
43	1011.48
43.04	1101.79
43.08	1282.41
43.12	1155.98
43.16	1011.48
43.2	1011.48
43.24	1137.92
43.28	1264.35
43.32	1155.98
43.36	1228.23
43.4	1011.48
43.44	1101.79
43.48	1210.16
43.52	1354.66
43.56	939.232
43.6	1174.04
43.64	1083.73
43.68	1318.54
43.72	1192.1
43.76	1354.66
43.8	1174.04
43.84	1282.41
43.88	1372.72
43.92	1047.6
43.96	1047.6
44	1336.6
44.04	1047.6
44.08	1119.85
44.12	1065.67
44.16	1246.29
44.2	1047.6
44.24	921.169
44.28	1119.85
44.32	758.61
44.36	1137.92
44.4	1155.98
44.44	1210.16
44.48	1011.48
44.52	921.169
44.56	1047.6
44.6	921.169
44.64	1047.6
44.68	1047.6
44.72	1065.67
44.76	848.921
44.8	1065.67
44.84	903.107
44.88	993.418
44.92	1192.1
44.96	1517.22
45	1155.98
45.04	866.983
45.08	993.418
45.12	1101.79
45.16	1137.92
45.2	848.921
45.24	1011.48
45.28	1192.1
45.32	1210.16
45.36	1282.41
45.4	1119.85
45.44	885.045
45.48	1065.67
45.52	1155.98
45.56	1083.73
45.6	1137.92
45.64	957.294
45.68	1065.67
45.72	885.045
45.76	1011.48
45.8	1228.23
45.84	975.356
45.88	1029.54
45.92	1192.1
45.96	1119.85
46	1083.73
46.04	903.107
46.08	975.356
46.12	975.356
46.16	975.356
46.2	1246.29
46.24	1047.6
46.28	1083.73
46.32	957.294
46.36	1065.67
46.4	758.61
46.44	957.294
46.48	794.734
46.52	1192.1
46.56	903.107
46.6	903.107
46.64	921.169
46.68	1137.92
46.72	1155.98
46.76	812.797
46.8	903.107
46.84	1029.54
46.88	1101.79
46.92	1011.48
46.96	1029.54
47	939.232
47.04	1065.67
47.08	776.672
47.12	1228.23
47.16	885.045
47.2	686.362
47.24	921.169
47.28	975.356
47.32	921.169
47.36	848.921
47.4	1192.1
47.44	1029.54
47.48	1047.6
47.52	794.734
47.56	939.232
47.6	758.61
47.64	957.294
47.68	921.169
47.72	1047.6
47.76	993.418
47.8	758.61
47.84	957.294
47.88	921.169
47.92	957.294
47.96	903.107
48	1083.73
48.04	1119.85
48.08	776.672
48.12	794.734
48.16	975.356
48.2	939.232
48.24	939.232
48.28	830.859
48.32	830.859
48.36	794.734
48.4	866.983
48.44	1119.85
48.48	921.169
48.52	1065.67
48.56	830.859
48.6	1011.48
48.64	776.672
48.68	993.418
48.72	722.486
48.76	776.672
48.8	794.734
48.84	1011.48
48.88	903.107
48.92	722.486
48.96	993.418
49	848.921
49.04	1047.6
49.08	939.232
49.12	812.797
49.16	885.045
49.2	830.859
49.24	722.486
49.28	993.418
49.32	830.859
49.36	704.424
49.4	848.921
49.44	866.983
49.48	939.232
49.52	921.169
49.56	614.113
49.6	921.169
49.64	794.734
49.68	903.107
49.72	794.734
49.76	650.237
49.8	794.734
49.84	722.486
49.88	812.797
49.92	812.797
49.96	668.299
50	758.61
50.04	812.797
50.08	668.299
50.12	722.486
50.16	975.356
50.2	812.797
50.24	722.486
50.28	776.672
50.32	866.983
50.36	812.797
50.4	704.424
50.44	758.61
50.48	668.299
50.52	559.927
50.56	848.921
50.6	830.859
50.64	830.859
50.68	921.169
50.72	975.356
50.76	1011.48
50.8	885.045
50.84	686.362
50.88	776.672
50.92	848.921
50.96	957.294
51	704.424
51.04	704.424
51.08	794.734
51.12	794.734
51.16	866.983
51.2	650.237
51.24	740.548
51.28	866.983
51.32	650.237
51.36	740.548
51.4	903.107
51.44	812.797
51.48	993.418
51.52	830.859
51.56	812.797
51.6	650.237
51.64	704.424
51.68	722.486
51.72	686.362
51.76	740.548
51.8	632.175
51.84	794.734
51.88	740.548
51.92	866.983
51.96	794.734
52	686.362
52.04	523.802
52.08	740.548
52.12	722.486
52.16	794.734
52.2	794.734
52.24	686.362
52.28	541.864
52.32	794.734
52.36	776.672
52.4	812.797
52.44	650.237
52.48	614.113
52.52	957.294
52.56	686.362
52.6	866.983
52.64	650.237
52.68	776.672
52.72	632.175
52.76	668.299
52.8	758.61
52.84	866.983
52.88	505.74
52.92	776.672
52.96	812.797
53	740.548
53.04	776.672
53.08	758.61
53.12	794.734
53.16	740.548
53.2	903.107
53.24	632.175
53.28	541.864
53.32	650.237
53.36	686.362
53.4	794.734
53.44	830.859
53.48	505.74
53.52	740.548
53.56	776.672
53.6	650.237
53.64	632.175
53.68	469.616
53.72	812.797
53.76	794.734
53.8	523.802
53.84	704.424
53.88	632.175
53.92	722.486
53.96	758.61
54	812.797
54.04	939.232
54.08	614.113
54.12	812.797
54.16	469.616
54.2	740.548
54.24	541.864
54.28	577.989
54.32	704.424
54.36	632.175
54.4	758.61
54.44	686.362
54.48	469.616
54.52	650.237
54.56	650.237
54.6	722.486
54.64	740.548
54.68	794.734
54.72	704.424
54.76	614.113
54.8	758.61
54.84	740.548
54.88	614.113
54.92	668.299
54.96	740.548
55	650.237
55.04	577.989
55.08	903.107
55.12	577.989
55.16	650.237
55.2	577.989
55.24	577.989
55.28	704.424
55.32	848.921
55.36	740.548
55.4	614.113
55.44	577.989
55.48	541.864
55.52	614.113
55.56	650.237
55.6	577.989
55.64	632.175
55.68	650.237
55.72	614.113
55.76	812.797
55.8	487.678
55.84	650.237
55.88	704.424
55.92	740.548
55.96	740.548
56	686.362
56.04	541.864
56.08	722.486
56.12	650.237
56.16	632.175
56.2	848.921
56.24	758.61
56.28	596.051
56.32	704.424
56.36	704.424
56.4	686.362
56.44	505.74
56.48	596.051
56.52	650.237
56.56	722.486
56.6	541.864
56.64	632.175
56.68	523.802
56.72	848.921
56.76	505.74
56.8	541.864
56.84	596.051
56.88	668.299
56.92	668.299
56.96	577.989
57	686.362
57.04	650.237
57.08	632.175
57.12	668.299
57.16	541.864
57.2	523.802
57.24	596.051
57.28	577.989
57.32	487.678
57.36	650.237
57.4	632.175
57.44	505.74
57.48	740.548
57.52	559.927
57.56	848.921
57.6	740.548
57.64	379.305
57.68	632.175
57.72	704.424
57.76	632.175
57.8	632.175
57.84	596.051
57.88	740.548
57.92	704.424
57.96	866.983
58	505.74
58.04	650.237
58.08	505.74
58.12	866.983
58.16	505.74
58.2	505.74
58.24	632.175
58.28	577.989
58.32	415.429
58.36	596.051
58.4	596.051
58.44	740.548
58.48	704.424
58.52	614.113
58.56	722.486
58.6	541.864
58.64	469.616
58.68	632.175
58.72	523.802
58.76	650.237
58.8	523.802
58.84	541.864
58.88	704.424
58.92	487.678
58.96	704.424
59	469.616
59.04	668.299
59.08	650.237
59.12	668.299
59.16	505.74
59.2	379.305
59.24	559.927
59.28	523.802
59.32	722.486
59.36	704.424
59.4	686.362
59.44	523.802
59.48	559.927
59.52	704.424
59.56	577.989
59.6	776.672
59.64	740.548
59.68	577.989
59.72	632.175
59.76	577.989
59.8	614.113
59.84	577.989
59.88	433.492
59.92	722.486
59.96	740.548
60	469.616
59.96	325.119
60	234.808