File: program/database/experiments/MU/xrd/1102/parallel/1029/xrd/50.TXT
Sample
Comments
Filename	C:\Data\西出研\梅木\20211102オペ\LiFTFSI20wt_02_0002_0049-1_C_2θ.raw
Goniometer	SmartLab(In-plane)
Attachment	標準Zステージ
Monochromater	None
X	0
Y	0
Z	0.01716
ScanningMode	2Theta
ScanningType	Continuos Scanning
X-Ray	40kV/30mA
入射スリット	0.300mm
受光スリット1	20.000mm
受光スリット2	20.000mm
None
Start	5
Stop	60
Step	0.02
Speed	21.6746
Theta	0
5	7893.16
5.04	6303.69
5.08	6520.44
5.12	6177.25
5.16	6267.56
5.2	6791.37
5.24	6213.38
5.28	6881.68
5.32	6448.19
5.36	7423.54
5.4	7206.8
5.44	6448.19
5.48	7062.3
5.52	7080.36
5.56	6682.99
5.6	5924.38
5.64	6357.88
5.68	6249.5
5.72	5653.45
5.76	6394
5.8	6448.19
5.84	6827.49
5.88	6719.12
5.92	6321.75
5.96	6809.43
6	6412.06
6.04	6159.19
6.08	7098.42
6.12	5743.76
6.16	5490.89
6.2	5671.51
6.24	6394
6.28	6086.94
6.32	6375.94
6.36	5870.2
6.4	5472.83
6.44	5906.32
6.48	6412.06
6.52	5671.51
6.56	5454.77
6.6	5779.89
6.64	6321.75
6.68	5635.39
6.72	5671.51
6.76	5472.83
6.8	5942.45
6.84	5888.26
6.88	5617.33
6.92	5996.63
6.96	5400.58
7	6032.76
7.04	5545.08
7.08	5346.4
7.12	5527.02
7.16	5653.45
7.2	5906.32
7.24	5996.63
7.28	6050.82
7.32	5617.33
7.36	5418.64
7.4	5743.76
7.44	5508.95
7.48	5960.51
7.52	5743.76
7.56	5274.15
7.6	5346.4
7.64	5761.82
7.68	5310.27
7.72	5129.65
7.76	5617.33
7.8	5797.95
7.84	5490.89
7.88	5797.95
7.92	5671.51
7.96	5093.53
8	5599.27
8.04	5400.58
8.08	5274.15
8.12	5725.7
8.16	6068.88
8.2	5472.83
8.24	5834.07
8.28	5075.46
8.32	5599.27
8.36	5888.26
8.4	5653.45
8.44	5418.64
8.48	6123.07
8.52	5274.15
8.56	5816.01
8.6	5454.77
8.64	6014.69
8.68	5725.7
8.72	5310.27
8.76	5328.33
8.8	5581.2
8.84	5725.7
8.88	5436.71
8.92	5364.46
8.96	5490.89
9	5238.02
9.04	5852.14
9.08	5310.27
9.12	4985.15
9.16	5454.77
9.2	5797.95
9.24	5346.4
9.28	5490.89
9.32	5671.51
9.36	5545.08
9.4	5310.27
9.44	5400.58
9.48	5563.14
9.52	5364.46
9.56	5201.9
9.6	5057.4
9.64	5256.08
9.68	6014.69
9.72	5039.34
9.76	5418.64
9.8	5165.77
9.84	5111.59
9.88	4732.28
9.92	5165.77
9.96	5436.71
10	5021.28
10.04	5147.71
10.08	4768.41
10.12	5075.46
10.16	4678.1
10.2	5111.59
10.24	5003.21
10.28	5382.52
10.32	5183.84
10.36	5545.08
10.4	4660.03
10.44	5201.9
10.48	5147.71
10.52	5238.02
10.56	5274.15
10.6	4894.84
10.64	5292.21
10.68	4912.9
10.72	5075.46
10.76	4949.03
10.8	4894.84
10.84	5183.84
10.88	5292.21
10.92	4786.47
10.96	5472.83
11	5111.59
11.04	5527.02
11.08	5093.53
11.12	5454.77
11.16	5581.2
11.2	5797.95
11.24	5310.27
11.28	5165.77
11.32	5165.77
11.36	5472.83
11.4	5346.4
11.44	5201.9
11.48	5418.64
11.52	5256.08
11.56	5165.77
11.6	5725.7
11.64	5057.4
11.68	5563.14
11.72	5400.58
11.76	5129.65
11.8	5364.46
11.84	5147.71
11.88	5527.02
11.92	4443.29
11.96	5003.21
12	5400.58
12.04	5075.46
12.08	5147.71
12.12	4840.66
12.16	5364.46
12.2	5129.65
12.24	5545.08
12.28	4876.78
12.32	5292.21
12.36	4894.84
12.4	4985.15
12.44	4912.9
12.48	5183.84
12.52	5545.08
12.56	5183.84
12.6	5274.15
12.64	5274.15
12.68	5057.4
12.72	4786.47
12.76	5400.58
12.8	5816.01
12.84	5111.59
12.88	5671.51
12.92	5508.95
12.96	5400.58
13	5075.46
13.04	5346.4
13.08	5472.83
13.12	5039.34
13.16	5527.02
13.2	5075.46
13.24	4804.53
13.28	4822.59
13.32	4967.09
13.36	5129.65
13.4	5075.46
13.44	5075.46
13.48	4714.22
13.52	5147.71
13.56	4949.03
13.6	4949.03
13.64	4949.03
13.68	4678.1
13.72	5707.64
13.76	4949.03
13.8	5129.65
13.84	4985.15
13.88	5400.58
13.92	5346.4
13.96	5454.77
14	5093.53
14.04	5563.14
14.08	4750.34
14.12	5292.21
14.16	5400.58
14.2	4641.97
14.24	5039.34
14.28	5238.02
14.32	5238.02
14.36	4912.9
14.4	5039.34
14.44	4786.47
14.48	4641.97
14.52	4732.28
14.56	5238.02
14.6	4678.1
14.64	4876.78
14.68	5292.21
14.72	4660.03
14.76	4045.92
14.8	4660.03
14.84	4894.84
14.88	4786.47
14.92	5129.65
14.96	5021.28
15	4840.66
15.04	4786.47
15.08	5039.34
15.12	4804.53
15.16	5039.34
15.2	5003.21
15.24	4876.78
15.28	4768.41
15.32	5165.77
15.36	4533.6
15.4	4425.23
15.44	4822.59
15.48	5111.59
15.52	5274.15
15.56	5147.71
15.6	4533.6
15.64	4985.15
15.68	4244.6
15.72	5310.27
15.76	5039.34
15.8	4732.28
15.84	4641.97
15.88	4352.98
15.92	4912.9
15.96	4714.22
16	5039.34
16.04	4551.66
16.08	4840.66
16.12	4768.41
16.16	5111.59
16.2	4949.03
16.24	4840.66
16.28	4443.29
16.32	5292.21
16.36	4479.41
16.4	4678.1
16.44	4551.66
16.48	5003.21
16.52	4587.79
16.56	5129.65
16.6	4352.98
16.64	4822.59
16.68	4750.34
16.72	5093.53
16.76	4732.28
16.8	4858.72
16.84	4732.28
16.88	4840.66
16.92	4389.1
16.96	5129.65
17	4569.72
17.04	5003.21
17.08	5328.33
17.12	5400.58
17.16	5075.46
17.2	5075.46
17.24	5310.27
17.28	5617.33
17.32	5111.59
17.36	5472.83
17.4	4678.1
17.44	5057.4
17.48	4497.47
17.52	4262.67
17.56	4768.41
17.6	4551.66
17.64	4569.72
17.68	4082.05
17.72	4425.23
17.76	4876.78
17.8	4443.29
17.84	4461.35
17.88	4551.66
17.92	4298.79
17.96	4822.59
18	4876.78
18.04	4533.6
18.08	5219.96
18.12	4515.54
18.16	5797.95
18.2	5797.95
18.24	5238.02
18.28	5382.52
18.32	5490.89
18.36	4912.9
18.4	4750.34
18.44	5183.84
18.48	5057.4
18.52	4623.91
18.56	5310.27
18.6	4930.97
18.64	5382.52
18.68	4985.15
18.72	5093.53
18.76	5364.46
18.8	5454.77
18.84	6050.82
18.88	5274.15
18.92	5400.58
18.96	5545.08
19	6195.32
19.04	4985.15
19.08	5797.95
19.12	5779.89
19.16	5743.76
19.2	5563.14
19.24	5761.82
19.28	5743.76
19.32	6321.75
19.36	5021.28
19.4	4949.03
19.44	4551.66
19.48	5129.65
19.52	5003.21
19.56	4623.91
19.6	4660.03
19.64	4190.42
19.68	4623.91
19.72	4714.22
19.76	4858.72
19.8	4750.34
19.84	4118.17
19.88	4009.8
19.92	4226.54
19.96	4678.1
20	4949.03
20.04	4208.48
20.08	4497.47
20.12	4280.73
20.16	3901.42
20.2	4605.85
20.24	4461.35
20.28	4389.1
20.32	3847.24
20.36	4407.16
20.4	4208.48
20.44	4479.41
20.48	3901.42
20.52	4262.67
20.56	4136.23
20.6	4190.42
20.64	4082.05
20.68	4082.05
20.72	4208.48
20.76	4298.79
20.8	4515.54
20.84	3630.49
20.88	4063.98
20.92	4154.29
20.96	4172.36
21	4208.48
21.04	4045.92
21.08	3901.42
21.12	4154.29
21.16	4190.42
21.2	3973.67
21.24	4334.92
21.28	3919.49
21.32	4045.92
21.36	4352.98
21.4	3865.3
21.44	4298.79
21.48	4063.98
21.52	4641.97
21.56	4063.98
21.6	3901.42
21.64	4334.92
21.68	3684.68
21.72	3648.55
21.76	3955.61
21.8	3973.67
21.84	4136.23
21.88	4389.1
21.92	4027.86
21.96	4569.72
22	4208.48
22.04	3955.61
22.08	4244.6
22.12	3919.49
22.16	4009.8
22.2	3811.11
22.24	4100.11
22.28	3865.3
22.32	4100.11
22.36	3720.8
22.4	4280.73
22.44	4280.73
22.48	3955.61
22.52	4316.85
22.56	3919.49
22.6	3738.86
22.64	3720.8
22.68	4027.86
22.72	3937.55
22.76	4027.86
22.8	3467.93
22.84	3612.43
22.88	3612.43
22.92	3991.73
22.96	4334.92
23	4154.29
23.04	3467.93
23.08	3504.06
23.12	3540.18
23.16	3973.67
23.2	3160.88
23.24	3666.62
23.28	4244.6
23.32	3865.3
23.36	3991.73
23.4	3485.99
23.44	3467.93
23.48	4027.86
23.52	3793.05
23.56	3540.18
23.6	3738.86
23.64	4172.36
23.68	3973.67
23.72	3991.73
23.76	3630.49
23.8	3720.8
23.84	3829.18
23.88	3359.56
23.92	4009.8
23.96	3829.18
24	3811.11
24.04	3720.8
24.08	3648.55
24.12	3485.99
24.16	3431.81
24.2	4045.92
24.24	3558.24
24.28	3431.81
24.32	3793.05
24.36	3287.31
24.4	3756.93
24.44	3431.81
24.48	3341.5
24.52	3197
24.56	3522.12
24.6	3811.11
24.64	3504.06
24.68	3341.5
24.72	3233.12
24.76	3395.68
24.8	3269.25
24.84	3341.5
24.88	3756.93
24.92	3359.56
24.96	3467.93
25	3197
25.04	3052.5
25.08	3504.06
25.12	3287.31
25.16	3287.31
25.2	3251.19
25.24	3540.18
25.28	3269.25
25.32	2763.51
25.36	3305.37
25.4	2926.07
25.44	3034.44
25.48	3215.06
25.52	2962.19
25.56	2763.51
25.6	3106.69
25.64	3395.68
25.68	3395.68
25.72	3269.25
25.76	3413.75
25.8	3215.06
25.84	3215.06
25.88	3431.81
25.92	3955.61
25.96	3720.8
26	3865.3
26.04	4280.73
26.08	3937.55
26.12	3666.62
26.16	3540.18
26.2	3558.24
26.24	3323.44
26.28	3106.69
26.32	3142.81
26.36	3197
26.4	2889.94
26.44	2889.94
26.48	3160.88
26.52	2745.45
26.56	2528.7
26.6	3034.44
26.64	2781.57
26.68	2781.57
26.72	2510.64
26.76	2709.32
26.8	2564.82
26.84	3142.81
26.88	2619.01
26.92	2619.01
26.96	2528.7
27	2799.63
27.04	2546.76
27.08	2456.45
27.12	2564.82
27.16	2474.51
27.2	2366.14
27.24	2817.69
27.28	2510.64
27.32	2257.77
27.36	2293.89
27.4	2330.02
27.44	2546.76
27.48	2528.7
27.52	2564.82
27.56	2275.83
27.6	2203.58
27.64	2420.33
27.68	2763.51
27.72	2384.2
27.76	2384.2
27.8	2311.95
27.84	2781.57
27.88	2275.83
27.92	2817.69
27.96	2293.89
28	2384.2
28.04	2944.13
28.08	2546.76
28.12	2564.82
28.16	2510.64
28.2	2149.4
28.24	2763.51
28.28	2528.7
28.32	2311.95
28.36	2528.7
28.4	2528.7
28.44	2384.2
28.48	2528.7
28.52	2239.71
28.56	2348.08
28.6	2474.51
28.64	2293.89
28.68	2167.46
28.72	2149.4
28.76	2348.08
28.8	2311.95
28.84	2510.64
28.88	2402.27
28.92	2131.33
28.96	2113.27
29	2348.08
29.04	2564.82
29.08	2330.02
29.12	2438.39
29.16	2311.95
29.2	2330.02
29.24	2348.08
29.28	2239.71
29.32	2293.89
29.36	2239.71
29.4	2438.39
29.44	2727.38
29.48	2149.4
29.52	1914.59
29.56	2311.95
29.6	2095.21
29.64	2185.52
29.68	2167.46
29.72	1824.28
29.76	2004.9
29.8	1878.46
29.84	2366.14
29.88	1986.84
29.92	2149.4
29.96	2167.46
30	2113.27
30.04	2059.08
30.08	2348.08
30.12	2077.15
30.16	2113.27
30.2	1824.28
30.24	2077.15
30.28	1950.71
30.32	2330.02
30.36	2167.46
30.4	1986.84
30.44	2041.02
30.48	1878.46
30.52	1842.34
30.56	1824.28
30.6	1806.21
30.64	1679.78
30.68	1950.71
30.72	2059.08
30.76	1878.46
30.8	2167.46
30.84	2257.77
30.88	1968.77
30.92	1986.84
30.96	1697.84
31	2113.27
31.04	1806.21
31.08	1589.47
31.12	1788.15
31.16	1752.03
31.2	1697.84
31.24	1968.77
31.28	1806.21
31.32	1860.4
31.36	1806.21
31.4	1896.53
31.44	1842.34
31.48	1733.97
31.52	1806.21
31.56	1968.77
31.6	1788.15
31.64	1860.4
31.68	1824.28
31.72	1806.21
31.76	1679.78
31.8	1444.97
31.84	1914.59
31.88	1715.9
31.92	1914.59
31.96	2059.08
32	1535.28
32.04	1932.65
32.08	1715.9
32.12	1824.28
32.16	2095.21
32.2	1770.09
32.24	1589.47
32.28	1896.53
32.32	1986.84
32.36	1661.72
32.4	1589.47
32.44	1589.47
32.48	1824.28
32.52	1788.15
32.56	1697.84
32.6	1788.15
32.64	1733.97
32.68	1679.78
32.72	1517.22
32.76	1697.84
32.8	1571.41
32.84	1950.71
32.88	1571.41
32.92	1625.59
32.96	1571.41
33	1733.97
33.04	1697.84
33.08	1643.66
33.12	1607.53
33.16	1517.22
33.2	1697.84
33.24	1571.41
33.28	1715.9
33.32	1246.29
33.36	1589.47
33.4	1517.22
33.44	1697.84
33.48	1589.47
33.52	1481.1
33.56	1679.78
33.6	1589.47
33.64	1715.9
33.68	1246.29
33.72	1643.66
33.76	1517.22
33.8	1752.03
33.84	1553.34
33.88	1517.22
33.92	1824.28
33.96	1372.72
34	1228.23
34.04	1535.28
34.08	1499.16
34.12	1372.72
34.16	1372.72
34.2	1752.03
34.24	1517.22
34.28	1390.79
34.32	1842.34
34.36	1463.03
34.4	1336.6
34.44	1481.1
34.48	1571.41
34.52	1444.97
34.56	1535.28
34.6	1661.72
34.64	1661.72
34.68	1481.1
34.72	1372.72
34.76	1372.72
34.8	1679.78
34.84	1246.29
34.88	1643.66
34.92	1372.72
34.96	1372.72
35	1607.53
35.04	1390.79
35.08	1390.79
35.12	1444.97
35.16	1372.72
35.2	1571.41
35.24	1553.34
35.28	1336.6
35.32	1806.21
35.36	1426.91
35.4	1697.84
35.44	1354.66
35.48	1463.03
35.52	1860.4
35.56	1463.03
35.6	1372.72
35.64	1336.6
35.68	1517.22
35.72	1589.47
35.76	1318.54
35.8	1499.16
35.84	1300.47
35.88	1246.29
35.92	1607.53
35.96	1444.97
36	1318.54
36.04	1715.9
36.08	1264.35
36.12	1481.1
36.16	1517.22
36.2	1463.03
36.24	1390.79
36.28	1444.97
36.32	1408.85
36.36	1679.78
36.4	1408.85
36.44	1517.22
36.48	1607.53
36.52	1300.47
36.56	1444.97
36.6	1282.41
36.64	1354.66
36.68	1210.16
36.72	1535.28
36.76	1300.47
36.8	1408.85
36.84	1318.54
36.88	1282.41
36.92	1264.35
36.96	1535.28
37	1246.29
37.04	1264.35
37.08	1679.78
37.12	1137.92
37.16	1354.66
37.2	1336.6
37.24	1192.1
37.28	1444.97
37.32	1336.6
37.36	1553.34
37.4	1481.1
37.44	1083.73
37.48	1300.47
37.52	1336.6
37.56	1625.59
37.6	1354.66
37.64	1336.6
37.68	1101.79
37.72	1499.16
37.76	1318.54
37.8	1192.1
37.84	1354.66
37.88	1192.1
37.92	1282.41
37.96	1408.85
38	1408.85
38.04	1354.66
38.08	1192.1
38.12	1246.29
38.16	1011.48
38.2	1300.47
38.24	1282.41
38.28	1228.23
38.32	1354.66
38.36	1192.1
38.4	1318.54
38.44	1571.41
38.48	1607.53
38.52	1246.29
38.56	993.418
38.6	1426.91
38.64	1282.41
38.68	1354.66
38.72	1408.85
38.76	1444.97
38.8	1137.92
38.84	1408.85
38.88	1119.85
38.92	1246.29
38.96	1535.28
39	1372.72
39.04	1336.6
39.08	1192.1
39.12	1318.54
39.16	1336.6
39.2	1354.66
39.24	1083.73
39.28	1444.97
39.32	1300.47
39.36	1119.85
39.4	1426.91
39.44	1192.1
39.48	993.418
39.52	1228.23
39.56	1047.6
39.6	1119.85
39.64	1210.16
39.68	1192.1
39.72	1354.66
39.76	1246.29
39.8	1300.47
39.84	1282.41
39.88	1372.72
39.92	1083.73
39.96	1282.41
40	1336.6
40.04	1372.72
40.08	1517.22
40.12	1137.92
40.16	1264.35
40.2	1300.47
40.24	1192.1
40.28	1137.92
40.32	1264.35
40.36	1047.6
40.4	1264.35
40.44	1047.6
40.48	1155.98
40.52	993.418
40.56	1463.03
40.6	1192.1
40.64	1499.16
40.68	1210.16
40.72	1354.66
40.76	903.107
40.8	1228.23
40.84	1517.22
40.88	1065.67
40.92	1625.59
40.96	1192.1
41	1192.1
41.04	1083.73
41.08	1246.29
41.12	1065.67
41.16	1228.23
41.2	1174.04
41.24	1083.73
41.28	1264.35
41.32	1300.47
41.36	1137.92
41.4	921.169
41.44	1155.98
41.48	1390.79
41.52	1318.54
41.56	1192.1
41.6	1119.85
41.64	957.294
41.68	1029.54
41.72	1372.72
41.76	1228.23
41.8	1372.72
41.84	1174.04
41.88	1318.54
41.92	1282.41
41.96	1282.41
42	1228.23
42.04	1192.1
42.08	1444.97
42.12	1192.1
42.16	1210.16
42.2	1155.98
42.24	993.418
42.28	1300.47
42.32	1282.41
42.36	1318.54
42.4	1137.92
42.44	1174.04
42.48	975.356
42.52	1372.72
42.56	1228.23
42.6	1083.73
42.64	1192.1
42.68	1282.41
42.72	1083.73
42.76	1155.98
42.8	1101.79
42.84	1282.41
42.88	1192.1
42.92	903.107
42.96	1228.23
43	1137.92
43.04	1354.66
43.08	903.107
43.12	1210.16
43.16	1155.98
43.2	1029.54
43.24	1083.73
43.28	993.418
43.32	1174.04
43.36	1246.29
43.4	1282.41
43.44	1228.23
43.48	1318.54
43.52	1390.79
43.56	1426.91
43.6	1246.29
43.64	1210.16
43.68	1029.54
43.72	993.418
43.76	975.356
43.8	975.356
43.84	1246.29
43.88	903.107
43.92	1300.47
43.96	1065.67
44	1174.04
44.04	1101.79
44.08	1137.92
44.12	1300.47
44.16	794.734
44.2	975.356
44.24	1119.85
44.28	957.294
44.32	1137.92
44.36	903.107
44.4	1029.54
44.44	1282.41
44.48	1101.79
44.52	885.045
44.56	1119.85
44.6	1336.6
44.64	939.232
44.68	1047.6
44.72	1119.85
44.76	1174.04
44.8	1246.29
44.84	1282.41
44.88	1029.54
44.92	866.983
44.96	1101.79
45	975.356
45.04	1101.79
45.08	1011.48
45.12	1101.79
45.16	975.356
45.2	1083.73
45.24	1174.04
45.28	1047.6
45.32	885.045
45.36	1137.92
45.4	1444.97
45.44	1155.98
45.48	1463.03
45.52	903.107
45.56	1029.54
45.6	1083.73
45.64	1192.1
45.68	975.356
45.72	1192.1
45.76	1264.35
45.8	993.418
45.84	1029.54
45.88	921.169
45.92	848.921
45.96	1065.67
46	1119.85
46.04	1047.6
46.08	1192.1
46.12	957.294
46.16	1155.98
46.2	812.797
46.24	1083.73
46.28	1137.92
46.32	866.983
46.36	1011.48
46.4	903.107
46.44	885.045
46.48	885.045
46.52	993.418
46.56	830.859
46.6	1065.67
46.64	975.356
46.68	1246.29
46.72	957.294
46.76	1282.41
46.8	1029.54
46.84	975.356
46.88	921.169
46.92	1065.67
46.96	812.797
47	1029.54
47.04	939.232
47.08	885.045
47.12	1192.1
47.16	866.983
47.2	1228.23
47.24	1119.85
47.28	921.169
47.32	903.107
47.36	975.356
47.4	848.921
47.44	1137.92
47.48	812.797
47.52	957.294
47.56	903.107
47.6	848.921
47.64	794.734
47.68	830.859
47.72	1101.79
47.76	921.169
47.8	939.232
47.84	975.356
47.88	866.983
47.92	776.672
47.96	921.169
48	957.294
48.04	848.921
48.08	885.045
48.12	939.232
48.16	866.983
48.2	957.294
48.24	975.356
48.28	975.356
48.32	885.045
48.36	830.859
48.4	776.672
48.44	776.672
48.48	650.237
48.52	1174.04
48.56	866.983
48.6	1137.92
48.64	704.424
48.68	957.294
48.72	812.797
48.76	903.107
48.8	812.797
48.84	939.232
48.88	1011.48
48.92	812.797
48.96	1065.67
49	1083.73
49.04	903.107
49.08	812.797
49.12	740.548
49.16	939.232
49.2	776.672
49.24	885.045
49.28	812.797
49.32	830.859
49.36	903.107
49.4	885.045
49.44	885.045
49.48	939.232
49.52	686.362
49.56	668.299
49.6	957.294
49.64	740.548
49.68	740.548
49.72	866.983
49.76	1047.6
49.8	722.486
49.84	1029.54
49.88	866.983
49.92	885.045
49.96	722.486
50	830.859
50.04	722.486
50.08	830.859
50.12	740.548
50.16	903.107
50.2	903.107
50.24	776.672
50.28	812.797
50.32	577.989
50.36	704.424
50.4	650.237
50.44	740.548
50.48	830.859
50.52	812.797
50.56	812.797
50.6	993.418
50.64	614.113
50.68	722.486
50.72	794.734
50.76	830.859
50.8	885.045
50.84	650.237
50.88	776.672
50.92	794.734
50.96	848.921
51	794.734
51.04	812.797
51.08	632.175
51.12	975.356
51.16	830.859
51.2	776.672
51.24	686.362
51.28	740.548
51.32	686.362
51.36	812.797
51.4	722.486
51.44	812.797
51.48	885.045
51.52	794.734
51.56	1065.67
51.6	686.362
51.64	812.797
51.68	722.486
51.72	848.921
51.76	722.486
51.8	614.113
51.84	704.424
51.88	740.548
51.92	776.672
51.96	794.734
52	740.548
52.04	830.859
52.08	704.424
52.12	596.051
52.16	541.864
52.2	668.299
52.24	794.734
52.28	903.107
52.32	848.921
52.36	650.237
52.4	848.921
52.44	939.232
52.48	830.859
52.52	848.921
52.56	758.61
52.6	975.356
52.64	740.548
52.68	541.864
52.72	957.294
52.76	650.237
52.8	704.424
52.84	577.989
52.88	686.362
52.92	903.107
52.96	722.486
53	686.362
53.04	722.486
53.08	794.734
53.12	668.299
53.16	1011.48
53.2	903.107
53.24	740.548
53.28	523.802
53.32	975.356
53.36	794.734
53.4	722.486
53.44	559.927
53.48	505.74
53.52	596.051
53.56	758.61
53.6	866.983
53.64	740.548
53.68	523.802
53.72	722.486
53.76	614.113
53.8	722.486
53.84	812.797
53.88	722.486
53.92	577.989
53.96	758.61
54	523.802
54.04	740.548
54.08	704.424
54.12	866.983
54.16	758.61
54.2	866.983
54.24	812.797
54.28	776.672
54.32	668.299
54.36	632.175
54.4	704.424
54.44	523.802
54.48	686.362
54.52	632.175
54.56	722.486
54.6	740.548
54.64	614.113
54.68	469.616
54.72	704.424
54.76	722.486
54.8	794.734
54.84	740.548
54.88	668.299
54.92	523.802
54.96	541.864
55	848.921
55.04	541.864
55.08	848.921
55.12	632.175
55.16	686.362
55.2	722.486
55.24	812.797
55.28	614.113
55.32	776.672
55.36	704.424
55.4	650.237
55.44	668.299
55.48	704.424
55.52	885.045
55.56	686.362
55.6	740.548
55.64	885.045
55.68	523.802
55.72	596.051
55.76	469.616
55.8	559.927
55.84	541.864
55.88	523.802
55.92	722.486
55.96	704.424
56	903.107
56.04	614.113
56.08	614.113
56.12	614.113
56.16	704.424
56.2	614.113
56.24	957.294
56.28	722.486
56.32	668.299
56.36	650.237
56.4	541.864
56.44	830.859
56.48	704.424
56.52	614.113
56.56	794.734
56.6	523.802
56.64	704.424
56.68	541.864
56.72	722.486
56.76	686.362
56.8	848.921
56.84	577.989
56.88	758.61
56.92	794.734
56.96	577.989
57	632.175
57.04	794.734
57.08	740.548
57.12	758.61
57.16	541.864
57.2	469.616
57.24	794.734
57.28	722.486
57.32	523.802
57.36	469.616
57.4	559.927
57.44	650.237
57.48	596.051
57.52	559.927
57.56	559.927
57.6	559.927
57.64	505.74
57.68	704.424
57.72	704.424
57.76	614.113
57.8	650.237
57.84	577.989
57.88	559.927
57.92	614.113
57.96	650.237
58	740.548
58.04	505.74
58.08	577.989
58.12	614.113
58.16	650.237
58.2	740.548
58.24	577.989
58.28	614.113
58.32	794.734
58.36	505.74
58.4	487.678
58.44	541.864
58.48	577.989
58.52	668.299
58.56	505.74
58.6	650.237
58.64	848.921
58.68	794.734
58.72	523.802
58.76	505.74
58.8	469.616
58.84	614.113
58.88	812.797
58.92	559.927
58.96	577.989
59	469.616
59.04	776.672
59.08	632.175
59.12	668.299
59.16	668.299
59.2	704.424
59.24	596.051
59.28	433.492
59.32	614.113
59.36	830.859
59.4	541.864
59.44	505.74
59.48	776.672
59.52	830.859
59.56	577.989
59.6	776.672
59.64	758.61
59.68	577.989
59.72	614.113
59.76	379.305
59.8	668.299
59.84	577.989
59.88	740.548
59.92	577.989
59.96	541.864
60	577.989

59.92	415.429
59.94	270.932
59.96	469.616
59.98	379.305
60	361.243