File: program/database/experiments/MU/xrd/1102/parallel/1029/xrd/80.TXT
Sample
Comments
Filename	C:\Data\西出研\梅木\20211102オペ\LiFTFSI20wt_03_0003_0079-1_C_2θ.raw
Goniometer	SmartLab(In-plane)
Attachment	標準Zステージ
Monochromater	None
X	0
Y	0
Z	0.01716
ScanningMode	2Theta
ScanningType	Continuos Scanning
X-Ray	40kV/30mA
入射スリット	0.300mm
受光スリット1	20.000mm
受光スリット2	20.000mm
None
Start	5
Stop	60
Step	0.02
Speed	21.6746
Theta	0
5	6285.63
5.04	7062.3
5.08	6737.18
5.12	6339.81
5.16	7080.36
5.2	6737.18
5.24	6628.81
5.28	6339.81
5.32	6664.93
5.36	6412.06
5.4	6141.13
5.44	6339.81
5.48	6755.24
5.52	7333.23
5.56	6791.37
5.6	7242.92
5.64	6123.07
5.68	6664.93
5.72	7080.36
5.76	6809.43
5.8	6123.07
5.84	6502.37
5.88	6123.07
5.92	6339.81
5.96	6014.69
6	6141.13
6.04	6231.44
6.08	6123.07
6.12	6430.12
6.16	6339.81
6.2	6339.81
6.24	5870.2
6.28	5599.27
6.32	6195.32
6.36	6050.82
6.4	5797.95
6.44	6628.81
6.48	5816.01
6.52	5689.58
6.56	5888.26
6.6	5707.64
6.64	6773.31
6.68	5761.82
6.72	6448.19
6.76	6141.13
6.8	6050.82
6.84	5653.45
6.88	6050.82
6.92	5852.14
6.96	6123.07
7	6267.56
7.04	6086.94
7.08	5689.58
7.12	5292.21
7.16	5382.52
7.2	5617.33
7.24	5725.7
7.28	5816.01
7.32	5870.2
7.36	5310.27
7.4	5527.02
7.44	6285.63
7.48	5472.83
7.52	5545.08
7.56	5671.51
7.6	5635.39
7.64	5797.95
7.68	5165.77
7.72	5256.08
7.76	5527.02
7.8	5635.39
7.84	5779.89
7.88	5129.65
7.92	5400.58
7.96	5689.58
8	6086.94
8.04	5599.27
8.08	5147.71
8.12	5617.33
8.16	5797.95
8.2	5508.95
8.24	5743.76
8.28	5418.64
8.32	5527.02
8.36	4750.34
8.4	5779.89
8.44	6123.07
8.48	5653.45
8.52	5382.52
8.56	5581.2
8.6	5906.32
8.64	5725.7
8.68	5364.46
8.72	5436.71
8.76	5129.65
8.8	5797.95
8.84	4949.03
8.88	5707.64
8.92	5057.4
8.96	5834.07
9	5707.64
9.04	5418.64
9.08	5400.58
9.12	5635.39
9.16	5454.77
9.2	5689.58
9.24	5021.28
9.28	5490.89
9.32	5508.95
9.36	4858.72
9.4	5996.63
9.44	5888.26
9.48	5328.33
9.52	5057.4
9.56	5599.27
9.6	4949.03
9.64	5201.9
9.68	5382.52
9.72	5816.01
9.76	5346.4
9.8	6159.19
9.84	5617.33
9.88	5364.46
9.92	5635.39
9.96	5183.84
10	5364.46
10.04	5021.28
10.08	5454.77
10.12	5093.53
10.16	5003.21
10.2	5527.02
10.24	5238.02
10.28	5418.64
10.32	5129.65
10.36	5057.4
10.4	5219.96
10.44	4858.72
10.48	5436.71
10.52	5635.39
10.56	5183.84
10.6	4930.97
10.64	5165.77
10.68	5671.51
10.72	4894.84
10.76	5852.14
10.8	5274.15
10.84	4479.41
10.88	5039.34
10.92	4587.79
10.96	5274.15
11	5581.2
11.04	4894.84
11.08	5274.15
11.12	5761.82
11.16	4876.78
11.2	4949.03
11.24	4840.66
11.28	5563.14
11.32	5418.64
11.36	5563.14
11.4	5165.77
11.44	5147.71
11.48	5129.65
11.52	4967.09
11.56	5021.28
11.6	5364.46
11.64	5238.02
11.68	5328.33
11.72	4967.09
11.76	5183.84
11.8	4750.34
11.84	5310.27
11.88	4804.53
11.92	5147.71
11.96	4822.59
12	5147.71
12.04	5165.77
12.08	5039.34
12.12	5165.77
12.16	5183.84
12.2	5454.77
12.24	5310.27
12.28	5310.27
12.32	5617.33
12.36	5183.84
12.4	5201.9
12.44	5942.45
12.48	4876.78
12.52	4732.28
12.56	4985.15
12.6	4912.9
12.64	5545.08
12.68	5563.14
12.72	5310.27
12.76	5743.76
12.8	5093.53
12.84	5039.34
12.88	5310.27
12.92	5653.45
12.96	5761.82
13	5545.08
13.04	5436.71
13.08	4623.91
13.12	5129.65
13.16	4768.41
13.2	5165.77
13.24	4714.22
13.28	4894.84
13.32	5183.84
13.36	5057.4
13.4	5761.82
13.44	5382.52
13.48	4732.28
13.52	5057.4
13.56	4912.9
13.6	4425.23
13.64	4587.79
13.68	5328.33
13.72	4912.9
13.76	5219.96
13.8	4930.97
13.84	5129.65
13.88	5274.15
13.92	5219.96
13.96	4876.78
14	5057.4
14.04	5039.34
14.08	5256.08
14.12	5454.77
14.16	4949.03
14.2	4226.54
14.24	5039.34
14.28	4894.84
14.32	5454.77
14.36	5039.34
14.4	4822.59
14.44	5183.84
14.48	4876.78
14.52	4732.28
14.56	5093.53
14.6	5075.46
14.64	5075.46
14.68	5039.34
14.72	4696.16
14.76	4912.9
14.8	5201.9
14.84	4912.9
14.88	4605.85
14.92	4967.09
14.96	4714.22
15	4912.9
15.04	5165.77
15.08	4967.09
15.12	5021.28
15.16	4822.59
15.2	4858.72
15.24	4750.34
15.28	5274.15
15.32	4696.16
15.36	5238.02
15.4	4714.22
15.44	5147.71
15.48	4858.72
15.52	5003.21
15.56	4732.28
15.6	5310.27
15.64	4226.54
15.68	4732.28
15.72	5093.53
15.76	4768.41
15.8	5057.4
15.84	4497.47
15.88	4714.22
15.92	4804.53
15.96	4822.59
16	4497.47
16.04	4154.29
16.08	5147.71
16.12	4967.09
16.16	4605.85
16.2	4714.22
16.24	4804.53
16.28	4876.78
16.32	5093.53
16.36	5057.4
16.4	4371.04
16.44	4660.03
16.48	5075.46
16.52	5021.28
16.56	4569.72
16.6	4425.23
16.64	4226.54
16.68	4605.85
16.72	4425.23
16.76	4407.16
16.8	4334.92
16.84	4154.29
16.88	4605.85
16.92	4678.1
16.96	4822.59
17	4804.53
17.04	4479.41
17.08	4876.78
17.12	5274.15
17.16	5707.64
17.2	5292.21
17.24	6375.94
17.28	5274.15
17.32	6032.76
17.36	4858.72
17.4	4732.28
17.44	4786.47
17.48	4858.72
17.52	5201.9
17.56	4641.97
17.6	4352.98
17.64	4208.48
17.68	4696.16
17.72	5382.52
17.76	4967.09
17.8	4641.97
17.84	4678.1
17.88	4479.41
17.92	4804.53
17.96	4912.9
18	4876.78
18.04	4876.78
18.08	4714.22
18.12	5382.52
18.16	5725.7
18.2	5527.02
18.24	6086.94
18.28	5942.45
18.32	5364.46
18.36	4768.41
18.4	5508.95
18.44	5346.4
18.48	4840.66
18.52	5563.14
18.56	5147.71
18.6	4840.66
18.64	5382.52
18.68	5219.96
18.72	5274.15
18.76	5003.21
18.8	5165.77
18.84	5021.28
18.88	5310.27
18.92	5653.45
18.96	5346.4
19	6050.82
19.04	5472.83
19.08	5274.15
19.12	5292.21
19.16	5671.51
19.2	5364.46
19.24	5743.76
19.28	5527.02
19.32	5256.08
19.36	5274.15
19.4	4822.59
19.44	4949.03
19.48	5021.28
19.52	5093.53
19.56	4623.91
19.6	4425.23
19.64	5454.77
19.68	4804.53
19.72	4172.36
19.76	4262.67
19.8	4316.85
19.84	4641.97
19.88	4190.42
19.92	4009.8
19.96	4100.11
20	4479.41
20.04	3883.36
20.08	4461.35
20.12	4407.16
20.16	4533.6
20.2	4009.8
20.24	4352.98
20.28	4371.04
20.32	4371.04
20.36	4226.54
20.4	3738.86
20.44	4172.36
20.48	4316.85
20.52	4371.04
20.56	4136.23
20.6	3793.05
20.64	4244.6
20.68	4443.29
20.72	3847.24
20.76	4750.34
20.8	3973.67
20.84	4605.85
20.88	4045.92
20.92	4371.04
20.96	4100.11
21	3901.42
21.04	4605.85
21.08	4063.98
21.12	4244.6
21.16	3973.67
21.2	4244.6
21.24	3756.93
21.28	4461.35
21.32	4027.86
21.36	4190.42
21.4	3829.18
21.44	4949.03
21.48	4190.42
21.52	4027.86
21.56	4262.67
21.6	4750.34
21.64	3738.86
21.68	4208.48
21.72	4154.29
21.76	4551.66
21.8	4100.11
21.84	4009.8
21.88	4208.48
21.92	3847.24
21.96	4678.1
22	3395.68
22.04	3955.61
22.08	4172.36
22.12	4136.23
22.16	4298.79
22.2	4298.79
22.24	3377.62
22.28	4244.6
22.32	3684.68
22.36	4118.17
22.4	3919.49
22.44	4280.73
22.48	3738.86
22.52	4009.8
22.56	3630.49
22.6	4045.92
22.64	4154.29
22.68	3829.18
22.72	3955.61
22.76	4082.05
22.8	4045.92
22.84	4027.86
22.88	3702.74
22.92	3612.43
22.96	3467.93
23	3811.11
23.04	4136.23
23.08	4190.42
23.12	3973.67
23.16	3829.18
23.2	3666.62
23.24	3919.49
23.28	3449.87
23.32	3431.81
23.36	3756.93
23.4	3612.43
23.44	3883.36
23.48	3377.62
23.52	3666.62
23.56	3359.56
23.6	3359.56
23.64	3720.8
23.68	4298.79
23.72	4226.54
23.76	3702.74
23.8	3702.74
23.84	3594.37
23.88	3865.3
23.92	3865.3
23.96	3774.99
24	3774.99
24.04	4136.23
24.08	3829.18
24.12	3702.74
24.16	3630.49
24.2	3756.93
24.24	3178.94
24.28	3937.55
24.32	3467.93
24.36	3341.5
24.4	3197
24.44	3485.99
24.48	3215.06
24.52	3341.5
24.56	3720.8
24.6	3576.31
24.64	3522.12
24.68	3215.06
24.72	3504.06
24.76	3666.62
24.8	3413.75
24.84	3774.99
24.88	3648.55
24.92	3467.93
24.96	3160.88
25	3305.37
25.04	3178.94
25.08	2781.57
25.12	2980.25
25.16	2257.77
25.2	3052.5
25.24	3070.56
25.28	3540.18
25.32	3269.25
25.36	3233.12
25.4	2889.94
25.44	3088.63
25.48	3197
25.52	2926.07
25.56	3341.5
25.6	3197
25.64	3612.43
25.68	3522.12
25.72	3251.19
25.76	2889.94
25.8	3215.06
25.84	3955.61
25.88	3522.12
25.92	3630.49
25.96	3865.3
26	3865.3
26.04	3991.73
26.08	4118.17
26.12	3937.55
26.16	3919.49
26.2	3612.43
26.24	3178.94
26.28	2944.13
26.32	3052.5
26.36	2853.82
26.4	3431.81
26.44	2998.32
26.48	2835.76
26.52	2727.38
26.56	2980.25
26.6	2727.38
26.64	3070.56
26.68	2492.58
26.72	2239.71
26.76	2600.95
26.8	2655.14
26.84	2492.58
26.88	2528.7
26.92	2781.57
26.96	2926.07
27	2655.14
27.04	3160.88
27.08	2600.95
27.12	2691.26
27.16	2456.45
27.2	2908.01
27.24	3034.44
27.28	2438.39
27.32	2492.58
27.36	2167.46
27.4	2619.01
27.44	2221.64
27.48	2655.14
27.52	2510.64
27.56	2709.32
27.6	2330.02
27.64	2239.71
27.68	2293.89
27.72	2384.2
27.76	2095.21
27.8	2384.2
27.84	2293.89
27.88	2167.46
27.92	2510.64
27.96	2384.2
28	2889.94
28.04	2709.32
28.08	2456.45
28.12	2582.89
28.16	2546.76
28.2	2311.95
28.24	2366.14
28.28	2330.02
28.32	2275.83
28.36	2113.27
28.4	1932.65
28.44	2637.07
28.48	2167.46
28.52	2185.52
28.56	2781.57
28.6	2528.7
28.64	2221.64
28.68	2384.2
28.72	2384.2
28.76	2546.76
28.8	2095.21
28.84	2546.76
28.88	2420.33
28.92	2311.95
28.96	2510.64
29	2492.58
29.04	2330.02
29.08	2673.2
29.12	2384.2
29.16	1896.53
29.2	2275.83
29.24	2059.08
29.28	2582.89
29.32	2402.27
29.36	2438.39
29.4	2221.64
29.44	2384.2
29.48	2113.27
29.52	2203.58
29.56	2221.64
29.6	1643.66
29.64	2293.89
29.68	2311.95
29.72	2366.14
29.76	1986.84
29.8	2185.52
29.84	2131.33
29.88	2275.83
29.92	1896.53
29.96	2059.08
30	1860.4
30.04	1950.71
30.08	2004.9
30.12	1896.53
30.16	1860.4
30.2	1896.53
30.24	2149.4
30.28	2293.89
30.32	2095.21
30.36	2167.46
30.4	1806.21
30.44	2131.33
30.48	2004.9
30.52	2113.27
30.56	2077.15
30.6	2167.46
30.64	2131.33
30.68	1968.77
30.72	1824.28
30.76	2077.15
30.8	1824.28
30.84	1788.15
30.88	1932.65
30.92	1968.77
30.96	1860.4
31	2113.27
31.04	1860.4
31.08	2059.08
31.12	2095.21
31.16	2095.21
31.2	2185.52
31.24	2022.96
31.28	1842.34
31.32	2059.08
31.36	1878.46
31.4	1806.21
31.44	2004.9
31.48	1986.84
31.52	1481.1
31.56	2004.9
31.6	1643.66
31.64	2402.27
31.68	2113.27
31.72	1679.78
31.76	2004.9
31.8	1752.03
31.84	1607.53
31.88	1770.09
31.92	1986.84
31.96	1914.59
32	1697.84
32.04	1932.65
32.08	1661.72
32.12	1535.28
32.16	1932.65
32.2	1499.16
32.24	1715.9
32.28	2095.21
32.32	1625.59
32.36	1697.84
32.4	1535.28
32.44	1715.9
32.48	1607.53
32.52	1499.16
32.56	1896.53
32.6	2113.27
32.64	1481.1
32.68	1607.53
32.72	1625.59
32.76	1715.9
32.8	1715.9
32.84	1733.97
32.88	1860.4
32.92	1481.1
32.96	1788.15
33	1806.21
33.04	1806.21
33.08	1607.53
33.12	1715.9
33.16	1824.28
33.2	2004.9
33.24	2113.27
33.28	1589.47
33.32	1390.79
33.36	1607.53
33.4	1860.4
33.44	1499.16
33.48	1788.15
33.52	1499.16
33.56	1715.9
33.6	1752.03
33.64	1643.66
33.68	1499.16
33.72	1517.22
33.76	1444.97
33.8	1788.15
33.84	1842.34
33.88	1932.65
33.92	1788.15
33.96	1517.22
34	1300.47
34.04	1535.28
34.08	1697.84
34.12	1372.72
34.16	1318.54
34.2	1968.77
34.24	1535.28
34.28	1607.53
34.32	1607.53
34.36	1968.77
34.4	1679.78
34.44	1426.91
34.48	1354.66
34.52	1444.97
34.56	1770.09
34.6	1733.97
34.64	1481.1
34.68	1499.16
34.72	1571.41
34.76	1661.72
34.8	1806.21
34.84	1444.97
34.88	1300.47
34.92	1481.1
34.96	1481.1
35	1463.03
35.04	1770.09
35.08	1715.9
35.12	1499.16
35.16	1372.72
35.2	1481.1
35.24	1535.28
35.28	1137.92
35.32	1137.92
35.36	1336.6
35.4	1318.54
35.44	1661.72
35.48	1806.21
35.52	1192.1
35.56	1372.72
35.6	1517.22
35.64	1589.47
35.68	1426.91
35.72	1553.34
35.76	1444.97
35.8	1517.22
35.84	1444.97
35.88	1372.72
35.92	1463.03
35.96	1643.66
36	1228.23
36.04	1408.85
36.08	1733.97
36.12	1282.41
36.16	1661.72
36.2	1264.35
36.24	1679.78
36.28	1481.1
36.32	1499.16
36.36	1318.54
36.4	1174.04
36.44	1408.85
36.48	1390.79
36.52	1571.41
36.56	1011.48
36.6	1210.16
36.64	1300.47
36.68	1390.79
36.72	1463.03
36.76	1318.54
36.8	1481.1
36.84	1282.41
36.88	1065.67
36.92	1607.53
36.96	1517.22
37	1481.1
37.04	1354.66
37.08	1715.9
37.12	1426.91
37.16	1300.47
37.2	1354.66
37.24	1354.66
37.28	1264.35
37.32	1155.98
37.36	1065.67
37.4	1192.1
37.44	1499.16
37.48	1625.59
37.52	1463.03
37.56	1336.6
37.6	1426.91
37.64	1463.03
37.68	1300.47
37.72	1553.34
37.76	1372.72
37.8	1336.6
37.84	1246.29
37.88	1065.67
37.92	1408.85
37.96	1101.79
38	1517.22
38.04	1390.79
38.08	1390.79
38.12	1354.66
38.16	1228.23
38.2	1426.91
38.24	1354.66
38.28	1300.47
38.32	1264.35
38.36	1336.6
38.4	1571.41
38.44	1264.35
38.48	1174.04
38.52	1246.29
38.56	1246.29
38.6	1101.79
38.64	1300.47
38.68	1517.22
38.72	1155.98
38.76	1228.23
38.8	1517.22
38.84	1264.35
38.88	1481.1
38.92	1318.54
38.96	1246.29
39	1228.23
39.04	1246.29
39.08	1029.54
39.12	1228.23
39.16	1426.91
39.2	1137.92
39.24	1300.47
39.28	1336.6
39.32	1210.16
39.36	1354.66
39.4	1300.47
39.44	1354.66
39.48	1499.16
39.52	1535.28
39.56	1137.92
39.6	1481.1
39.64	1372.72
39.68	1535.28
39.72	1390.79
39.76	1083.73
39.8	1155.98
39.84	1426.91
39.88	1083.73
39.92	1137.92
39.96	1354.66
40	1300.47
40.04	1354.66
40.08	1210.16
40.12	1210.16
40.16	1228.23
40.2	1228.23
40.24	1463.03
40.28	1282.41
40.32	1119.85
40.36	1228.23
40.4	1372.72
40.44	1336.6
40.48	1282.41
40.52	1029.54
40.56	1029.54
40.6	1174.04
40.64	1083.73
40.68	1444.97
40.72	1101.79
40.76	1336.6
40.8	1282.41
40.84	1192.1
40.88	1607.53
40.92	1354.66
40.96	1426.91
41	1463.03
41.04	1101.79
41.08	1318.54
41.12	1300.47
41.16	1444.97
41.2	1499.16
41.24	1155.98
41.28	957.294
41.32	1047.6
41.36	1029.54
41.4	1372.72
41.44	1137.92
41.48	921.169
41.52	1119.85
41.56	1246.29
41.6	1282.41
41.64	1137.92
41.68	1101.79
41.72	1065.67
41.76	1336.6
41.8	1119.85
41.84	1318.54
41.88	1029.54
41.92	1011.48
41.96	975.356
42	1246.29
42.04	1300.47
42.08	1228.23
42.12	1426.91
42.16	1390.79
42.2	1318.54
42.24	1210.16
42.28	1318.54
42.32	1101.79
42.36	1047.6
42.4	939.232
42.44	1174.04
42.48	1192.1
42.52	1336.6
42.56	957.294
42.6	1228.23
42.64	1481.1
42.68	1083.73
42.72	1083.73
42.76	1282.41
42.8	1047.6
42.84	1083.73
42.88	1137.92
42.92	1318.54
42.96	1065.67
43	1083.73
43.04	1192.1
43.08	1137.92
43.12	1300.47
43.16	1246.29
43.2	1228.23
43.24	1083.73
43.28	1119.85
43.32	1300.47
43.36	1246.29
43.4	1481.1
43.44	1408.85
43.48	1174.04
43.52	1228.23
43.56	975.356
43.6	1354.66
43.64	1408.85
43.68	1101.79
43.72	1481.1
43.76	921.169
43.8	1155.98
43.84	1192.1
43.88	812.797
43.92	1101.79
43.96	1174.04
44	1246.29
44.04	1083.73
44.08	1083.73
44.12	1137.92
44.16	1174.04
44.2	1137.92
44.24	957.294
44.28	1029.54
44.32	1210.16
44.36	1174.04
44.4	1047.6
44.44	939.232
44.48	1372.72
44.52	1047.6
44.56	1083.73
44.6	939.232
44.64	1065.67
44.68	1318.54
44.72	776.672
44.76	957.294
44.8	1119.85
44.84	993.418
44.88	993.418
44.92	1210.16
44.96	1119.85
45	866.983
45.04	1318.54
45.08	1155.98
45.12	1137.92
45.16	1210.16
45.2	1029.54
45.24	1011.48
45.28	1228.23
45.32	957.294
45.36	1029.54
45.4	1011.48
45.44	1137.92
45.48	993.418
45.52	1119.85
45.56	1011.48
45.6	1228.23
45.64	993.418
45.68	957.294
45.72	1426.91
45.76	758.61
45.8	848.921
45.84	1390.79
45.88	993.418
45.92	1210.16
45.96	1101.79
46	957.294
46.04	921.169
46.08	1047.6
46.12	903.107
46.16	903.107
46.2	1047.6
46.24	993.418
46.28	975.356
46.32	866.983
46.36	1065.67
46.4	848.921
46.44	939.232
46.48	650.237
46.52	975.356
46.56	1083.73
46.6	812.797
46.64	1029.54
46.68	921.169
46.72	758.61
46.76	903.107
46.8	993.418
46.84	866.983
46.88	1101.79
46.92	1155.98
46.96	848.921
47	1011.48
47.04	921.169
47.08	939.232
47.12	794.734
47.16	668.299
47.2	957.294
47.24	1119.85
47.28	812.797
47.32	939.232
47.36	722.486
47.4	975.356
47.44	1083.73
47.48	866.983
47.52	1119.85
47.56	885.045
47.6	993.418
47.64	740.548
47.68	848.921
47.72	848.921
47.76	975.356
47.8	885.045
47.84	885.045
47.88	1246.29
47.92	993.418
47.96	704.424
48	740.548
48.04	957.294
48.08	866.983
48.12	1083.73
48.16	1083.73
48.2	866.983
48.24	1029.54
48.28	921.169
48.32	993.418
48.36	975.356
48.4	957.294
48.44	848.921
48.48	596.051
48.52	1101.79
48.56	848.921
48.6	957.294
48.64	993.418
48.68	1011.48
48.72	776.672
48.76	776.672
48.8	758.61
48.84	939.232
48.88	722.486
48.92	632.175
48.96	704.424
49	957.294
49.04	650.237
49.08	812.797
49.12	812.797
49.16	885.045
49.2	993.418
49.24	975.356
49.28	541.864
49.32	939.232
49.36	1065.67
49.4	848.921
49.44	957.294
49.48	794.734
49.52	957.294
49.56	848.921
49.6	812.797
49.64	921.169
49.68	704.424
49.72	668.299
49.76	921.169
49.8	794.734
49.84	722.486
49.88	866.983
49.92	740.548
49.96	957.294
50	975.356
50.04	794.734
50.08	866.983
50.12	776.672
50.16	812.797
50.2	722.486
50.24	758.61
50.28	812.797
50.32	740.548
50.36	686.362
50.4	686.362
50.44	830.859
50.48	975.356
50.52	848.921
50.56	812.797
50.6	740.548
50.64	957.294
50.68	704.424
50.72	740.548
50.76	903.107
50.8	650.237
50.84	686.362
50.88	975.356
50.92	686.362
50.96	740.548
51	848.921
51.04	903.107
51.08	650.237
51.12	848.921
51.16	722.486
51.2	758.61
51.24	776.672
51.28	758.61
51.32	686.362
51.36	758.61
51.4	668.299
51.44	686.362
51.48	830.859
51.52	596.051
51.56	686.362
51.6	776.672
51.64	614.113
51.68	830.859
51.72	704.424
51.76	614.113
51.8	957.294
51.84	939.232
51.88	866.983
51.92	740.548
51.96	812.797
52	722.486
52.04	794.734
52.08	668.299
52.12	758.61
52.16	848.921
52.2	776.672
52.24	776.672
52.28	921.169
52.32	885.045
52.36	776.672
52.4	993.418
52.44	632.175
52.48	614.113
52.52	650.237
52.56	686.362
52.6	704.424
52.64	740.548
52.68	722.486
52.72	686.362
52.76	758.61
52.8	903.107
52.84	668.299
52.88	722.486
52.92	758.61
52.96	758.61
53	776.672
53.04	866.983
53.08	668.299
53.12	848.921
53.16	614.113
53.2	541.864
53.24	704.424
53.28	614.113
53.32	740.548
53.36	740.548
53.4	668.299
53.44	848.921
53.48	758.61
53.52	704.424
53.56	758.61
53.6	505.74
53.64	614.113
53.68	577.989
53.72	577.989
53.76	523.802
53.8	632.175
53.84	686.362
53.88	668.299
53.92	758.61
53.96	577.989
54	668.299
54.04	758.61
54.08	596.051
54.12	758.61
54.16	668.299
54.2	523.802
54.24	704.424
54.28	650.237
54.32	704.424
54.36	830.859
54.4	921.169
54.44	686.362
54.48	614.113
54.52	523.802
54.56	722.486
54.6	632.175
54.64	686.362
54.68	596.051
54.72	650.237
54.76	740.548
54.8	614.113
54.84	704.424
54.88	596.051
54.92	686.362
54.96	866.983
55	505.74
55.04	668.299
55.08	812.797
55.12	776.672
55.16	668.299
55.2	668.299
55.24	632.175
55.28	650.237
55.32	559.927
55.36	668.299
55.4	758.61
55.44	650.237
55.48	541.864
55.52	668.299
55.56	505.74
55.6	776.672
55.64	686.362
55.68	758.61
55.72	469.616
55.76	650.237
55.8	505.74
55.84	758.61
55.88	596.051
55.92	632.175
55.96	632.175
56	650.237
56.04	812.797
56.08	650.237
56.12	650.237
56.16	686.362
56.2	541.864
56.24	650.237
56.28	812.797
56.32	614.113
56.36	596.051
56.4	740.548
56.44	577.989
56.48	523.802
56.52	686.362
56.56	722.486
56.6	704.424
56.64	668.299
56.68	686.362
56.72	523.802
56.76	541.864
56.8	415.429
56.84	505.74
56.88	758.61
56.92	523.802
56.96	596.051
57	758.61
57.04	848.921
57.08	686.362
57.12	577.989
57.16	397.367
57.2	812.797
57.24	776.672
57.28	740.548
57.32	577.989
57.36	541.864
57.4	776.672
57.44	722.486
57.48	614.113
57.52	596.051
57.56	704.424
57.6	632.175
57.64	668.299
57.68	650.237
57.72	722.486
57.76	577.989
57.8	668.299
57.84	541.864
57.88	740.548
57.92	559.927
57.96	614.113
58	650.237
58.04	469.616
58.08	614.113
58.12	541.864
58.16	650.237
58.2	758.61
58.24	740.548
58.28	740.548
58.32	740.548
58.36	614.113
58.4	614.113
58.44	686.362
58.48	451.554
58.52	559.927
58.56	686.362
58.6	704.424
58.64	596.051
58.68	650.237
58.72	505.74
58.76	487.678
58.8	451.554
58.84	758.61
58.88	668.299
58.92	614.113
58.96	559.927
59	704.424
59.04	668.299
59.08	541.864
59.12	614.113
59.16	632.175
59.2	577.989
59.24	740.548
59.28	650.237
59.32	469.616
59.36	577.989
59.4	704.424
59.44	487.678
59.48	830.859
59.52	668.299
59.56	487.678
59.6	650.237
59.64	740.548
59.68	505.74
59.72	614.113
59.76	505.74
59.8	523.802
59.84	596.051
59.88	668.299
59.92	632.175
59.96	614.113
60	668.299
59.94	361.243
59.98	307.056
60	505.74