File: program/database/experiments/MU/xrd/1102/parallel/1018/xrd/25.TXT
Sample
Comments
Filename	C:\Data\西出研\梅木\20211102オペ\LiFTFSI30wt_01_0001_0029-1_C_2θ.raw
Goniometer	SmartLab(In-plane)
Attachment	標準Zステージ
Monochromater	None
X	0
Y	0
Z	0.01652
ScanningMode	2Theta
ScanningType	Continuos Scanning
X-Ray	40kV/30mA
入射スリット	0.300mm
受光スリット1	20.000mm
受光スリット2	20.000mm
None
Start	5
Stop	60
Step	0.02
Speed	21.6746
Theta	0
5	5545.08
5.04	5635.39
5.08	5382.52
5.12	5996.63
5.16	5671.51
5.2	5256.08
5.24	5508.95
5.28	5382.52
5.32	4912.9
5.36	5906.32
5.4	6430.12
5.44	5707.64
5.48	5057.4
5.52	5346.4
5.56	6050.82
5.6	5545.08
5.64	5563.14
5.68	5508.95
5.72	5563.14
5.76	5346.4
5.8	5725.7
5.84	5238.02
5.88	4876.78
5.92	5201.9
5.96	4858.72
6	4804.53
6.04	5472.83
6.08	5201.9
6.12	5328.33
6.16	5003.21
6.2	5057.4
6.24	5274.15
6.28	5183.84
6.32	5075.46
6.36	4912.9
6.4	4930.97
6.44	5599.27
6.48	4280.73
6.52	4840.66
6.56	4876.78
6.6	4876.78
6.64	5093.53
6.68	5003.21
6.72	5436.71
6.76	4768.41
6.8	5436.71
6.84	5039.34
6.88	5057.4
6.92	5183.84
6.96	5003.21
7	5219.96
7.04	4389.1
7.08	4912.9
7.12	4840.66
7.16	5183.84
7.2	4804.53
7.24	4605.85
7.28	4443.29
7.32	5256.08
7.36	5003.21
7.4	5111.59
7.44	4876.78
7.48	5057.4
7.52	5129.65
7.56	4407.16
7.6	4768.41
7.64	5003.21
7.68	4930.97
7.72	5093.53
7.76	4930.97
7.8	4551.66
7.84	4804.53
7.88	5057.4
7.92	4515.54
7.96	4551.66
8	4533.6
8.04	4822.59
8.08	4479.41
8.12	4894.84
8.16	4100.11
8.2	5003.21
8.24	4822.59
8.28	4208.48
8.32	5274.15
8.36	4443.29
8.4	5436.71
8.44	4334.92
8.48	4858.72
8.52	4840.66
8.56	5111.59
8.6	4696.16
8.64	4894.84
8.68	5400.58
8.72	5021.28
8.76	4876.78
8.8	4750.34
8.84	4804.53
8.88	4371.04
8.92	4425.23
8.96	4551.66
9	4750.34
9.04	4623.91
9.08	4425.23
9.12	4660.03
9.16	4840.66
9.2	4569.72
9.24	4425.23
9.28	4262.67
9.32	4732.28
9.36	4750.34
9.4	4118.17
9.44	4389.1
9.48	4967.09
9.52	4840.66
9.56	4714.22
9.6	4298.79
9.64	4930.97
9.68	4768.41
9.72	4479.41
9.76	4894.84
9.8	4443.29
9.84	4389.1
9.88	4750.34
9.92	4858.72
9.96	4389.1
10	5219.96
10.04	4190.42
10.08	4732.28
10.12	4262.67
10.16	4551.66
10.2	4587.79
10.24	4822.59
10.28	4407.16
10.32	4352.98
10.36	4082.05
10.4	4840.66
10.44	4750.34
10.48	4623.91
10.52	4045.92
10.56	4515.54
10.6	4009.8
10.64	3955.61
10.68	4497.47
10.72	4226.54
10.76	4082.05
10.8	4894.84
10.84	4316.85
10.88	3919.49
10.92	4389.1
10.96	4334.92
11	4696.16
11.04	4587.79
11.08	4280.73
11.12	4063.98
11.16	4190.42
11.2	4678.1
11.24	4244.6
11.28	4082.05
11.32	4840.66
11.36	4352.98
11.4	4262.67
11.44	4623.91
11.48	4533.6
11.52	4569.72
11.56	4678.1
11.6	4208.48
11.64	4551.66
11.68	4118.17
11.72	4714.22
11.76	4316.85
11.8	4352.98
11.84	4244.6
11.88	4172.36
11.92	3793.05
11.96	4226.54
12	4750.34
12.04	4371.04
12.08	3955.61
12.12	5021.28
12.16	3829.18
12.2	4389.1
12.24	4352.98
12.28	4136.23
12.32	4768.41
12.36	4280.73
12.4	4425.23
12.44	4605.85
12.48	4479.41
12.52	4407.16
12.56	4569.72
12.6	4154.29
12.64	4136.23
12.68	4587.79
12.72	4443.29
12.76	4118.17
12.8	4623.91
12.84	5021.28
12.88	4696.16
12.92	5183.84
12.96	4750.34
13	4515.54
13.04	5147.71
13.08	4804.53
13.12	4858.72
13.16	3648.55
13.2	4045.92
13.24	4244.6
13.28	4551.66
13.32	4063.98
13.36	4587.79
13.4	4154.29
13.44	4298.79
13.48	4407.16
13.52	4154.29
13.56	4334.92
13.6	4262.67
13.64	4443.29
13.68	4443.29
13.72	4533.6
13.76	4479.41
13.8	4190.42
13.84	4334.92
13.88	4660.03
13.92	4587.79
13.96	4750.34
14	4118.17
14.04	4334.92
14.08	4316.85
14.12	4136.23
14.16	4352.98
14.2	4244.6
14.24	4118.17
14.28	3738.86
14.32	4190.42
14.36	4045.92
14.4	4082.05
14.44	4262.67
14.48	4063.98
14.52	4352.98
14.56	4118.17
14.6	4118.17
14.64	4371.04
14.68	4172.36
14.72	4190.42
14.76	4063.98
14.8	3955.61
14.84	4551.66
14.88	4425.23
14.92	3738.86
14.96	4082.05
15	4226.54
15.04	4118.17
15.08	4045.92
15.12	4118.17
15.16	4226.54
15.2	4045.92
15.24	3793.05
15.28	4118.17
15.32	4425.23
15.36	3919.49
15.4	3666.62
15.44	4244.6
15.48	4280.73
15.52	3666.62
15.56	3955.61
15.6	3630.49
15.64	4226.54
15.68	4190.42
15.72	3937.55
15.76	3829.18
15.8	4208.48
15.84	3648.55
15.88	3522.12
15.92	4262.67
15.96	4154.29
16	4136.23
16.04	4009.8
16.08	4154.29
16.12	4371.04
16.16	4118.17
16.2	3829.18
16.24	3847.24
16.28	3793.05
16.32	4027.86
16.36	4009.8
16.4	3485.99
16.44	4082.05
16.48	4118.17
16.52	4352.98
16.56	3973.67
16.6	4280.73
16.64	3919.49
16.68	4082.05
16.72	3738.86
16.76	3973.67
16.8	3558.24
16.84	3684.68
16.88	4027.86
16.92	3919.49
16.96	3738.86
17	4443.29
17.04	3756.93
17.08	4804.53
17.12	4858.72
17.16	4118.17
17.2	4479.41
17.24	5219.96
17.28	5653.45
17.32	5599.27
17.36	5075.46
17.4	4822.59
17.44	4551.66
17.48	4280.73
17.52	4208.48
17.56	4190.42
17.6	4461.35
17.64	4045.92
17.68	4009.8
17.72	3630.49
17.76	4551.66
17.8	3738.86
17.84	4226.54
17.88	3865.3
17.92	4226.54
17.96	4371.04
18	3793.05
18.04	4425.23
18.08	5183.84
18.12	4858.72
18.16	5021.28
18.2	6357.88
18.24	6574.62
18.28	6032.76
18.32	5274.15
18.36	4786.47
18.4	5165.77
18.44	5183.84
18.48	4750.34
18.52	5418.64
18.56	4623.91
18.6	3865.3
18.64	4045.92
18.68	3413.75
18.72	4407.16
18.76	3955.61
18.8	4154.29
18.84	4732.28
18.88	4443.29
18.92	5508.95
18.96	5870.2
19	5779.89
19.04	6014.69
19.08	6484.31
19.12	5400.58
19.16	5852.14
19.2	5852.14
19.24	5924.38
19.28	6321.75
19.32	5707.64
19.36	5057.4
19.4	5147.71
19.44	4696.16
19.48	4063.98
19.52	4389.1
19.56	4912.9
19.6	4172.36
19.64	4985.15
19.68	4804.53
19.72	4587.79
19.76	3883.36
19.8	4136.23
19.84	3449.87
19.88	3684.68
19.92	3431.81
19.96	3684.68
20	3540.18
20.04	3576.31
20.08	3774.99
20.12	3178.94
20.16	3829.18
20.2	3558.24
20.24	3323.44
20.28	3467.93
20.32	3323.44
20.36	3558.24
20.4	3594.37
20.44	3215.06
20.48	3774.99
20.52	3323.44
20.56	3793.05
20.6	3666.62
20.64	3955.61
20.68	3377.62
20.72	3811.11
20.76	3594.37
20.8	3648.55
20.84	3612.43
20.88	3811.11
20.92	3847.24
20.96	3504.06
21	3612.43
21.04	3612.43
21.08	3287.31
21.12	3955.61
21.16	3540.18
21.2	3702.74
21.24	3124.75
21.28	3558.24
21.32	3287.31
21.36	3522.12
21.4	3359.56
21.44	3793.05
21.48	4100.11
21.52	4063.98
21.56	4045.92
21.6	3883.36
21.64	3359.56
21.68	3594.37
21.72	3413.75
21.76	3504.06
21.8	3594.37
21.84	3522.12
21.88	3684.68
21.92	3359.56
21.96	3720.8
22	3413.75
22.04	3341.5
22.08	3485.99
22.12	3702.74
22.16	3504.06
22.2	3413.75
22.24	3883.36
22.28	3052.5
22.32	2474.51
22.36	3034.44
22.4	3233.12
22.44	3052.5
22.48	3251.19
22.52	3485.99
22.56	3160.88
22.6	3413.75
22.64	3124.75
22.68	3160.88
22.72	3359.56
22.76	3016.38
22.8	3395.68
22.84	2944.13
22.88	3576.31
22.92	3269.25
22.96	3612.43
23	3449.87
23.04	3359.56
23.08	3233.12
23.12	3106.69
23.16	3233.12
23.2	2871.88
23.24	3341.5
23.28	3016.38
23.32	3088.63
23.36	3178.94
23.4	3070.56
23.44	3016.38
23.48	3052.5
23.52	3197
23.56	3612.43
23.6	3142.81
23.64	3467.93
23.68	3070.56
23.72	3124.75
23.76	3197
23.8	3269.25
23.84	3341.5
23.88	3793.05
23.92	3251.19
23.96	3413.75
24	3774.99
24.04	3648.55
24.08	3901.42
24.12	3901.42
24.16	3666.62
24.2	3774.99
24.24	3431.81
24.28	3088.63
24.32	2691.26
24.36	3124.75
24.4	3124.75
24.44	3088.63
24.48	2889.94
24.52	2889.94
24.56	3666.62
24.6	3124.75
24.64	3088.63
24.68	2817.69
24.72	3088.63
24.76	3106.69
24.8	3106.69
24.84	3142.81
24.88	3070.56
24.92	2619.01
24.96	2221.64
25	2582.89
25.04	2709.32
25.08	2853.82
25.12	2510.64
25.16	2528.7
25.2	2637.07
25.24	2510.64
25.28	2619.01
25.32	2655.14
25.36	2546.76
25.4	2619.01
25.44	2835.76
25.48	2492.58
25.52	2691.26
25.56	2781.57
25.6	2944.13
25.64	2980.25
25.68	2835.76
25.72	3233.12
25.76	3449.87
25.8	3305.37
25.84	3251.19
25.88	3540.18
25.92	3666.62
25.96	3811.11
26	4063.98
26.04	3991.73
26.08	4334.92
26.12	5454.77
26.16	5508.95
26.2	4967.09
26.24	4063.98
26.28	3377.62
26.32	3251.19
26.36	2817.69
26.4	2745.45
26.44	2908.01
26.48	2257.77
26.52	2619.01
26.56	2600.95
26.6	2510.64
26.64	2546.76
26.68	2131.33
26.72	2781.57
26.76	1986.84
26.8	2167.46
26.84	2330.02
26.88	2239.71
26.92	2311.95
26.96	2041.02
27	2167.46
27.04	2004.9
27.08	2402.27
27.12	2041.02
27.16	2149.4
27.2	2004.9
27.24	2185.52
27.28	2384.2
27.32	2022.96
27.36	2221.64
27.4	2059.08
27.44	2041.02
27.48	1950.71
27.52	2077.15
27.56	2077.15
27.6	1878.46
27.64	2438.39
27.68	2330.02
27.72	2131.33
27.76	2366.14
27.8	2420.33
27.84	1986.84
27.88	2167.46
27.92	2366.14
27.96	1914.59
28	2041.02
28.04	2330.02
28.08	2366.14
28.12	2131.33
28.16	2384.2
28.2	2221.64
28.24	2131.33
28.28	2167.46
28.32	1896.53
28.36	2275.83
28.4	2221.64
28.44	2221.64
28.48	2004.9
28.52	1896.53
28.56	1968.77
28.6	2348.08
28.64	1914.59
28.68	1896.53
28.72	2203.58
28.76	1986.84
28.8	1752.03
28.84	1715.9
28.88	1950.71
28.92	2149.4
28.96	1950.71
29	1932.65
29.04	1860.4
29.08	1986.84
29.12	2059.08
29.16	1806.21
29.2	2348.08
29.24	2022.96
29.28	2022.96
29.32	2402.27
29.36	2239.71
29.4	2456.45
29.44	2293.89
29.48	2221.64
29.52	1986.84
29.56	1788.15
29.6	2275.83
29.64	2095.21
29.68	1932.65
29.72	1589.47
29.76	1824.28
29.8	1860.4
29.84	1806.21
29.88	1878.46
29.92	1481.1
29.96	1806.21
30	2113.27
30.04	1806.21
30.08	1878.46
30.12	1625.59
30.16	1481.1
30.2	1715.9
30.24	2221.64
30.28	1679.78
30.32	1878.46
30.36	1499.16
30.4	2257.77
30.44	1914.59
30.48	1752.03
30.52	1824.28
30.56	2221.64
30.6	1752.03
30.64	1860.4
30.68	2257.77
30.72	1878.46
30.76	1842.34
30.8	1860.4
30.84	2059.08
30.88	1914.59
30.92	1661.72
30.96	1553.34
31	1643.66
31.04	1390.79
31.08	2077.15
31.12	1679.78
31.16	1553.34
31.2	1733.97
31.24	1770.09
31.28	1896.53
31.32	1896.53
31.36	2004.9
31.4	1372.72
31.44	1571.41
31.48	1968.77
31.52	1752.03
31.56	1896.53
31.6	1824.28
31.64	1372.72
31.68	1770.09
31.72	1752.03
31.76	1824.28
31.8	1733.97
31.84	1643.66
31.88	1571.41
31.92	1589.47
31.96	1697.84
32	1715.9
32.04	1589.47
32.08	1715.9
32.12	1752.03
32.16	2239.71
32.2	1932.65
32.24	1625.59
32.28	1282.41
32.32	1571.41
32.36	1589.47
32.4	1426.91
32.44	1733.97
32.48	1643.66
32.52	1553.34
32.56	1553.34
32.6	1318.54
32.64	1426.91
32.68	1553.34
32.72	1715.9
32.76	1679.78
32.8	1589.47
32.84	1625.59
32.88	1878.46
32.92	1517.22
32.96	1499.16
33	1607.53
33.04	1246.29
33.08	1571.41
33.12	1607.53
33.16	1354.66
33.2	1354.66
33.24	1535.28
33.28	1372.72
33.32	1571.41
33.36	1444.97
33.4	1390.79
33.44	1246.29
33.48	1408.85
33.52	1481.1
33.56	1300.47
33.6	1752.03
33.64	1300.47
33.68	1589.47
33.72	1318.54
33.76	1354.66
33.8	1282.41
33.84	1210.16
33.88	1390.79
33.92	1679.78
33.96	1444.97
34	1246.29
34.04	1318.54
34.08	1444.97
34.12	1426.91
34.16	1463.03
34.2	1210.16
34.24	1444.97
34.28	1571.41
34.32	1444.97
34.36	1426.91
34.4	1481.1
34.44	1426.91
34.48	1481.1
34.52	1426.91
34.56	1499.16
34.6	1408.85
34.64	1390.79
34.68	1499.16
34.72	921.169
34.76	1354.66
34.8	1282.41
34.84	1101.79
34.88	1336.6
34.92	1210.16
34.96	1444.97
35	1318.54
35.04	1318.54
35.08	1083.73
35.12	1426.91
35.16	1264.35
35.2	1390.79
35.24	1318.54
35.28	1119.85
35.32	1282.41
35.36	1174.04
35.4	1300.47
35.44	1426.91
35.48	1083.73
35.52	1535.28
35.56	1390.79
35.6	1354.66
35.64	1155.98
35.68	1553.34
35.72	1354.66
35.76	1174.04
35.8	1300.47
35.84	1354.66
35.88	1372.72
35.92	1354.66
35.96	1444.97
36	1426.91
36.04	1065.67
36.08	1047.6
36.12	1210.16
36.16	1499.16
36.2	1372.72
36.24	957.294
36.28	1228.23
36.32	1354.66
36.36	1408.85
36.4	1463.03
36.44	1065.67
36.48	1192.1
36.52	1192.1
36.56	1155.98
36.6	1174.04
36.64	1137.92
36.68	939.232
36.72	1065.67
36.76	975.356
36.8	1174.04
36.84	1589.47
36.88	1155.98
36.92	1300.47
36.96	1083.73
37	1192.1
37.04	1463.03
37.08	1336.6
37.12	1210.16
37.16	1228.23
37.2	1246.29
37.24	1210.16
37.28	1499.16
37.32	1174.04
37.36	1210.16
37.4	939.232
37.44	1228.23
37.48	1101.79
37.52	1210.16
37.56	1264.35
37.6	1228.23
37.64	1318.54
37.68	1300.47
37.72	957.294
37.76	1336.6
37.8	1047.6
37.84	1029.54
37.88	1137.92
37.92	1047.6
37.96	1210.16
38	1499.16
38.04	1119.85
38.08	1246.29
38.12	993.418
38.16	1318.54
38.2	1300.47
38.24	1228.23
38.28	1192.1
38.32	1119.85
38.36	975.356
38.4	957.294
38.44	1083.73
38.48	1300.47
38.52	1155.98
38.56	993.418
38.6	1228.23
38.64	1155.98
38.68	1300.47
38.72	1390.79
38.76	1463.03
38.8	1083.73
38.84	1192.1
38.88	1047.6
38.92	1246.29
38.96	1192.1
39	1083.73
39.04	1264.35
39.08	1155.98
39.12	1192.1
39.16	1246.29
39.2	1210.16
39.24	1444.97
39.28	1228.23
39.32	1192.1
39.36	1426.91
39.4	1264.35
39.44	1029.54
39.48	1119.85
39.52	848.921
39.56	1174.04
39.6	903.107
39.64	957.294
39.68	1119.85
39.72	993.418
39.76	1011.48
39.8	1210.16
39.84	776.672
39.88	1083.73
39.92	1210.16
39.96	1408.85
40	1192.1
40.04	1011.48
40.08	1155.98
40.12	1444.97
40.16	1155.98
40.2	1192.1
40.24	1137.92
40.28	1101.79
40.32	921.169
40.36	1174.04
40.4	1246.29
40.44	885.045
40.48	1210.16
40.52	1300.47
40.56	1011.48
40.6	921.169
40.64	957.294
40.68	1174.04
40.72	1264.35
40.76	1101.79
40.8	1011.48
40.84	1155.98
40.88	1228.23
40.92	1192.1
40.96	1047.6
41	1047.6
41.04	1155.98
41.08	1517.22
41.12	1300.47
41.16	1246.29
41.2	1192.1
41.24	1011.48
41.28	794.734
41.32	939.232
41.36	848.921
41.4	1065.67
41.44	1047.6
41.48	1246.29
41.52	1210.16
41.56	1083.73
41.6	1101.79
41.64	939.232
41.68	1101.79
41.72	957.294
41.76	1155.98
41.8	1137.92
41.84	1246.29
41.88	1137.92
41.92	1137.92
41.96	1192.1
42	1029.54
42.04	1174.04
42.08	1083.73
42.12	1101.79
42.16	957.294
42.2	1047.6
42.24	1029.54
42.28	1101.79
42.32	1065.67
42.36	866.983
42.4	1011.48
42.44	939.232
42.48	1065.67
42.52	1065.67
42.56	1119.85
42.6	1101.79
42.64	1137.92
42.68	1029.54
42.72	1083.73
42.76	1083.73
42.8	885.045
42.84	957.294
42.88	975.356
42.92	1137.92
42.96	975.356
43	1119.85
43.04	830.859
43.08	1192.1
43.12	1155.98
43.16	1228.23
43.2	1119.85
43.24	1192.1
43.28	1192.1
43.32	1065.67
43.36	1083.73
43.4	903.107
43.44	903.107
43.48	1228.23
43.52	975.356
43.56	1174.04
43.6	993.418
43.64	1318.54
43.68	1029.54
43.72	1065.67
43.76	903.107
43.8	1011.48
43.84	975.356
43.88	866.983
43.92	957.294
43.96	1047.6
44	903.107
44.04	885.045
44.08	939.232
44.12	993.418
44.16	957.294
44.2	866.983
44.24	848.921
44.28	848.921
44.32	848.921
44.36	1047.6
44.4	1119.85
44.44	1047.6
44.48	885.045
44.52	993.418
44.56	740.548
44.6	921.169
44.64	1246.29
44.68	939.232
44.72	1065.67
44.76	921.169
44.8	1047.6
44.84	993.418
44.88	1029.54
44.92	957.294
44.96	921.169
45	921.169
45.04	1065.67
45.08	975.356
45.12	830.859
45.16	704.424
45.2	1101.79
45.24	1192.1
45.28	1011.48
45.32	975.356
45.36	885.045
45.4	830.859
45.44	1029.54
45.48	1047.6
45.52	885.045
45.56	975.356
45.6	668.299
45.64	830.859
45.68	866.983
45.72	1155.98
45.76	1083.73
45.8	1029.54
45.84	975.356
45.88	1047.6
45.92	866.983
45.96	812.797
46	903.107
46.04	758.61
46.08	1174.04
46.12	740.548
46.16	848.921
46.2	903.107
46.24	812.797
46.28	885.045
46.32	866.983
46.36	1101.79
46.4	794.734
46.44	1065.67
46.48	1029.54
46.52	903.107
46.56	957.294
46.6	921.169
46.64	1029.54
46.68	993.418
46.72	704.424
46.76	993.418
46.8	1083.73
46.84	1065.67
46.88	939.232
46.92	848.921
46.96	1047.6
47	921.169
47.04	975.356
47.08	830.859
47.12	921.169
47.16	830.859
47.2	830.859
47.24	740.548
47.28	722.486
47.32	975.356
47.36	885.045
47.4	1083.73
47.44	830.859
47.48	885.045
47.52	614.113
47.56	794.734
47.6	885.045
47.64	830.859
47.68	812.797
47.72	776.672
47.76	776.672
47.8	596.051
47.84	885.045
47.88	650.237
47.92	614.113
47.96	686.362
48	903.107
48.04	686.362
48.08	722.486
48.12	1011.48
48.16	596.051
48.2	487.678
48.24	668.299
48.28	758.61
48.32	939.232
48.36	794.734
48.4	668.299
48.44	758.61
48.48	650.237
48.52	740.548
48.56	704.424
48.6	866.983
48.64	921.169
48.68	758.61
48.72	830.859
48.76	650.237
48.8	1083.73
48.84	885.045
48.88	866.983
48.92	921.169
48.96	704.424
49	614.113
49.04	758.61
49.08	758.61
49.12	650.237
49.16	559.927
49.2	794.734
49.24	812.797
49.28	812.797
49.32	866.983
49.36	469.616
49.4	505.74
49.44	776.672
49.48	668.299
49.52	686.362
49.56	740.548
49.6	794.734
49.64	812.797
49.68	722.486
49.72	830.859
49.76	722.486
49.8	776.672
49.84	939.232
49.88	614.113
49.92	794.734
49.96	830.859
50	794.734
50.04	830.859
50.08	650.237
50.12	668.299
50.16	758.61
50.2	722.486
50.24	776.672
50.28	722.486
50.32	794.734
50.36	758.61
50.4	632.175
50.44	758.61
50.48	722.486
50.52	686.362
50.56	686.362
50.6	722.486
50.64	686.362
50.68	704.424
50.72	722.486
50.76	794.734
50.8	632.175
50.84	632.175
50.88	686.362
50.92	740.548
50.96	559.927
51	921.169
51.04	830.859
51.08	722.486
51.12	740.548
51.16	740.548
51.2	650.237
51.24	722.486
51.28	776.672
51.32	523.802
51.36	668.299
51.4	668.299
51.44	722.486
51.48	848.921
51.52	541.864
51.56	596.051
51.6	487.678
51.64	596.051
51.68	939.232
51.72	722.486
51.76	650.237
51.8	740.548
51.84	812.797
51.88	487.678
51.92	668.299
51.96	632.175
52	559.927
52.04	433.492
52.08	686.362
52.12	686.362
52.16	650.237
52.2	794.734
52.24	650.237
52.28	776.672
52.32	668.299
52.36	614.113
52.4	487.678
52.44	505.74
52.48	650.237
52.52	668.299
52.56	722.486
52.6	614.113
52.64	577.989
52.68	541.864
52.72	686.362
52.76	614.113
52.8	523.802
52.84	668.299
52.88	740.548
52.92	758.61
52.96	668.299
53	632.175
53.04	559.927
53.08	668.299
53.12	650.237
53.16	722.486
53.2	541.864
53.24	505.74
53.28	596.051
53.32	487.678
53.36	632.175
53.4	632.175
53.44	668.299
53.48	577.989
53.52	577.989
53.56	559.927
53.6	903.107
53.64	632.175
53.68	632.175
53.72	523.802
53.76	632.175
53.8	541.864
53.84	577.989
53.88	776.672
53.92	577.989
53.96	704.424
54	451.554
54.04	704.424
54.08	632.175
54.12	794.734
54.16	722.486
54.2	415.429
54.24	415.429
54.28	541.864
54.32	686.362
54.36	596.051
54.4	758.61
54.44	632.175
54.48	596.051
54.52	650.237
54.56	668.299
54.6	559.927
54.64	668.299
54.68	577.989
54.72	505.74
54.76	343.181
54.8	541.864
54.84	559.927
54.88	577.989
54.92	650.237
54.96	614.113
55	596.051
55.04	632.175
55.08	505.74
55.12	650.237
55.16	577.989
55.2	614.113
55.24	577.989
55.28	614.113
55.32	469.616
55.36	686.362
55.4	668.299
55.44	686.362
55.48	668.299
55.52	596.051
55.56	596.051
55.6	469.616
55.64	433.492
55.68	758.61
55.72	740.548
55.76	577.989
55.8	650.237
55.84	559.927
55.88	794.734
55.92	650.237
55.96	614.113
56	686.362
56.04	722.486
56.08	704.424
56.12	632.175
56.16	487.678
56.2	614.113
56.24	758.61
56.28	559.927
56.32	776.672
56.36	632.175
56.4	686.362
56.44	469.616
56.48	830.859
56.52	722.486
56.56	541.864
56.6	650.237
56.64	632.175
56.68	523.802
56.72	686.362
56.76	451.554
56.8	433.492
56.84	596.051
56.88	704.424
56.92	776.672
56.96	361.243
57	704.424
57.04	487.678
57.08	559.927
57.12	487.678
57.16	632.175
57.2	776.672
57.24	614.113
57.28	740.548
57.32	577.989
57.36	559.927
57.4	650.237
57.44	451.554
57.48	469.616
57.52	523.802
57.56	451.554
57.6	614.113
57.64	433.492
57.68	415.429
57.72	505.74
57.76	523.802
57.8	523.802
57.84	469.616
57.88	577.989
57.92	541.864
57.96	541.864
58	686.362
58.04	577.989
58.08	577.989
58.12	596.051
58.16	559.927
58.2	379.305
58.24	704.424
58.28	397.367
58.32	433.492
58.36	632.175
58.4	505.74
58.44	541.864
58.48	451.554
58.52	451.554
58.56	523.802
58.6	469.616
58.64	614.113
58.68	541.864
58.72	758.61
58.76	487.678
58.8	686.362
58.84	559.927
58.88	577.989
58.92	487.678
58.96	577.989
59	559.927
59.04	451.554
59.08	379.305
59.12	541.864
59.16	469.616
59.2	632.175
59.24	541.864
59.28	451.554
59.32	559.927
59.36	397.367
59.4	559.927
59.44	722.486
59.48	505.74
59.52	541.864
59.56	614.113
59.6	523.802
59.64	758.61
59.68	505.74
59.72	722.486
59.76	559.927
59.8	433.492
59.84	596.051
59.88	523.802
59.92	650.237
59.96	704.424
60	614.113
60	668.299

60	812.797
59.98	379.305
60	270.932