File: program/database/experiments/MU/xrd/1102/parallel/1018/xrd/50.TXT
Sample
Comments
Filename	C:\Data\西出研\梅木\20211102オペ\LiFTFSI30wt_02_0002_0049-1_C_2θ.raw
Goniometer	SmartLab(In-plane)
Attachment	標準Zステージ
Monochromater	None
X	0
Y	0
Z	0.01652
ScanningMode	2Theta
ScanningType	Continuos Scanning
X-Ray	40kV/30mA
入射スリット	0.300mm
受光スリット1	20.000mm
受光スリット2	20.000mm
None
Start	5
Stop	60
Step	0.02
Speed	21.6746
Theta	0
5	5346.4
5.04	5346.4
5.08	5888.26
5.12	5508.95
5.16	5093.53
5.2	5238.02
5.24	5563.14
5.28	5418.64
5.32	6050.82
5.36	5653.45
5.4	6032.76
5.44	5346.4
5.48	5490.89
5.52	5581.2
5.56	5924.38
5.6	5563.14
5.64	6050.82
5.68	5436.71
5.72	5436.71
5.76	5183.84
5.8	5292.21
5.84	5490.89
5.88	5508.95
5.92	5545.08
5.96	5472.83
6	5003.21
6.04	5400.58
6.08	5346.4
6.12	5201.9
6.16	5599.27
6.2	4804.53
6.24	4985.15
6.28	5129.65
6.32	5508.95
6.36	5165.77
6.4	5075.46
6.44	5382.52
6.48	5581.2
6.52	5147.71
6.56	5021.28
6.6	4822.59
6.64	5346.4
6.68	5599.27
6.72	5310.27
6.76	5057.4
6.8	5219.96
6.84	4750.34
6.88	4822.59
6.92	5111.59
6.96	4949.03
7	4967.09
7.04	4732.28
7.08	4660.03
7.12	5075.46
7.16	4804.53
7.2	4551.66
7.24	4533.6
7.28	4894.84
7.32	4949.03
7.36	4407.16
7.4	4894.84
7.44	4641.97
7.48	4750.34
7.52	4732.28
7.56	4894.84
7.6	4696.16
7.64	4876.78
7.68	4587.79
7.72	4226.54
7.76	4985.15
7.8	4912.9
7.84	4696.16
7.88	4641.97
7.92	4660.03
7.96	5057.4
8	4804.53
8.04	4226.54
8.08	4569.72
8.12	4949.03
8.16	4623.91
8.2	5003.21
8.24	5111.59
8.28	4912.9
8.32	5075.46
8.36	4082.05
8.4	5256.08
8.44	4569.72
8.48	4967.09
8.52	4641.97
8.56	4912.9
8.6	5165.77
8.64	5400.58
8.68	5003.21
8.72	4660.03
8.76	5021.28
8.8	4678.1
8.84	4280.73
8.88	4840.66
8.92	4840.66
8.96	4443.29
9	4407.16
9.04	4533.6
9.08	4515.54
9.12	4587.79
9.16	4768.41
9.2	4768.41
9.24	4009.8
9.28	3774.99
9.32	4443.29
9.36	4352.98
9.4	4660.03
9.44	4786.47
9.48	4714.22
9.52	4551.66
9.56	4876.78
9.6	4804.53
9.64	4587.79
9.68	4352.98
9.72	4569.72
9.76	4714.22
9.8	4443.29
9.84	4280.73
9.88	4641.97
9.92	4949.03
9.96	4443.29
10	4930.97
10.04	4786.47
10.08	4714.22
10.12	4858.72
10.16	4678.1
10.2	4172.36
10.24	4515.54
10.28	4497.47
10.32	4641.97
10.36	4551.66
10.4	4858.72
10.44	4334.92
10.48	4334.92
10.52	4479.41
10.56	4569.72
10.6	3955.61
10.64	4316.85
10.68	4515.54
10.72	4190.42
10.76	4009.8
10.8	4334.92
10.84	4461.35
10.88	4262.67
10.92	4316.85
10.96	4786.47
11	4407.16
11.04	4118.17
11.08	4515.54
11.12	4371.04
11.16	4696.16
11.2	4623.91
11.24	4696.16
11.28	4641.97
11.32	4876.78
11.36	4479.41
11.4	4208.48
11.44	4461.35
11.48	4316.85
11.52	4027.86
11.56	4334.92
11.6	4082.05
11.64	4587.79
11.68	4226.54
11.72	4136.23
11.76	4443.29
11.8	4822.59
11.84	4497.47
11.88	4479.41
11.92	4515.54
11.96	4822.59
12	4009.8
12.04	4316.85
12.08	4262.67
12.12	4262.67
12.16	4515.54
12.2	4352.98
12.24	4262.67
12.28	4678.1
12.32	4678.1
12.36	4551.66
12.4	4280.73
12.44	4208.48
12.48	3865.3
12.52	4479.41
12.56	4298.79
12.6	4714.22
12.64	4262.67
12.68	4118.17
12.72	4551.66
12.76	4298.79
12.8	4479.41
12.84	4930.97
12.88	5201.9
12.92	5165.77
12.96	4768.41
13	5147.71
13.04	4623.91
13.08	4479.41
13.12	4569.72
13.16	4172.36
13.2	5165.77
13.24	4280.73
13.28	4587.79
13.32	4244.6
13.36	4605.85
13.4	3955.61
13.44	4371.04
13.48	4678.1
13.52	4226.54
13.56	4389.1
13.6	4786.47
13.64	4136.23
13.68	4479.41
13.72	4443.29
13.76	4461.35
13.8	4082.05
13.84	4118.17
13.88	4154.29
13.92	4533.6
13.96	4190.42
14	4352.98
14.04	4009.8
14.08	4371.04
14.12	4551.66
14.16	4100.11
14.2	4226.54
14.24	3973.67
14.28	4136.23
14.32	4515.54
14.36	4118.17
14.4	3811.11
14.44	4461.35
14.48	4190.42
14.52	4479.41
14.56	3756.93
14.6	4190.42
14.64	4316.85
14.68	3612.43
14.72	4425.23
14.76	4063.98
14.8	4280.73
14.84	3901.42
14.88	3829.18
14.92	4371.04
14.96	3847.24
15	3702.74
15.04	3720.8
15.08	4352.98
15.12	4226.54
15.16	3774.99
15.2	3901.42
15.24	3901.42
15.28	4208.48
15.32	4316.85
15.36	4136.23
15.4	4190.42
15.44	3793.05
15.48	4605.85
15.52	3901.42
15.56	4190.42
15.6	3702.74
15.64	4063.98
15.68	4262.67
15.72	3666.62
15.76	4208.48
15.8	3774.99
15.84	4082.05
15.88	4461.35
15.92	3720.8
15.96	3847.24
16	4461.35
16.04	3811.11
16.08	3738.86
16.12	4082.05
16.16	4100.11
16.2	4461.35
16.24	4082.05
16.28	4371.04
16.32	3973.67
16.36	3558.24
16.4	4352.98
16.44	3793.05
16.48	3811.11
16.52	3558.24
16.56	4136.23
16.6	4100.11
16.64	3630.49
16.68	4082.05
16.72	4352.98
16.76	3576.31
16.8	3702.74
16.84	4262.67
16.88	4461.35
16.92	3774.99
16.96	4316.85
17	3756.93
17.04	4569.72
17.08	4063.98
17.12	4154.29
17.16	5003.21
17.2	5454.77
17.24	5382.52
17.28	6014.69
17.32	5183.84
17.36	4461.35
17.4	4443.29
17.44	3847.24
17.48	4154.29
17.52	3937.55
17.56	4027.86
17.6	3774.99
17.64	4154.29
17.68	3648.55
17.72	3865.3
17.76	4082.05
17.8	3449.87
17.84	3756.93
17.88	3594.37
17.92	4063.98
17.96	3919.49
18	4280.73
18.04	4371.04
18.08	4352.98
18.12	5328.33
18.16	5653.45
18.2	6773.31
18.24	5924.38
18.28	6105.01
18.32	5364.46
18.36	4949.03
18.4	4967.09
18.44	4461.35
18.48	4786.47
18.52	4930.97
18.56	4208.48
18.6	3973.67
18.64	4063.98
18.68	4154.29
18.72	3991.73
18.76	4027.86
18.8	4118.17
18.84	4100.11
18.88	4858.72
18.92	5436.71
18.96	5364.46
19	6791.37
19.04	5924.38
19.08	6430.12
19.12	5671.51
19.16	5689.58
19.2	5743.76
19.24	6430.12
19.28	6177.25
19.32	5129.65
19.36	5075.46
19.4	5238.02
19.44	4425.23
19.48	5310.27
19.52	4660.03
19.56	4858.72
19.6	3973.67
19.64	4407.16
19.68	4930.97
19.72	3901.42
19.76	4027.86
19.8	4172.36
19.84	3738.86
19.88	3178.94
19.92	3937.55
19.96	3829.18
20	3793.05
20.04	3991.73
20.08	3738.86
20.12	3504.06
20.16	3449.87
20.2	3847.24
20.24	2998.32
20.28	3684.68
20.32	3431.81
20.36	3540.18
20.4	3720.8
20.44	3829.18
20.48	3504.06
20.52	3666.62
20.56	4154.29
20.6	3612.43
20.64	3359.56
20.68	4190.42
20.72	4226.54
20.76	4190.42
20.8	3485.99
20.84	3937.55
20.88	3811.11
20.92	3684.68
20.96	3901.42
21	3540.18
21.04	3088.63
21.08	3865.3
21.12	3160.88
21.16	3305.37
21.2	3395.68
21.24	3197
21.28	3431.81
21.32	3395.68
21.36	3341.5
21.4	3431.81
21.44	3666.62
21.48	3756.93
21.52	3630.49
21.56	4082.05
21.6	3973.67
21.64	3738.86
21.68	3341.5
21.72	3142.81
21.76	3449.87
21.8	3395.68
21.84	3395.68
21.88	3341.5
21.92	4136.23
21.96	3522.12
22	3106.69
22.04	3540.18
22.08	3467.93
22.12	3341.5
22.16	3377.62
22.2	3287.31
22.24	3124.75
22.28	3395.68
22.32	3558.24
22.36	2962.19
22.4	3088.63
22.44	3233.12
22.48	3504.06
22.52	2871.88
22.56	3124.75
22.6	2998.32
22.64	2926.07
22.68	3359.56
22.72	2944.13
22.76	2998.32
22.8	3269.25
22.84	3287.31
22.88	3269.25
22.92	3034.44
22.96	3522.12
23	3449.87
23.04	2980.25
23.08	3594.37
23.12	3829.18
23.16	3070.56
23.2	2944.13
23.24	2944.13
23.28	3359.56
23.32	3106.69
23.36	3178.94
23.4	2799.63
23.44	2817.69
23.48	2564.82
23.52	3233.12
23.56	3540.18
23.6	3142.81
23.64	3233.12
23.68	3323.44
23.72	3269.25
23.76	2998.32
23.8	3359.56
23.84	3251.19
23.88	3793.05
23.92	4118.17
23.96	3738.86
24	3793.05
24.04	3811.11
24.08	4009.8
24.12	3774.99
24.16	3431.81
24.2	3413.75
24.24	3016.38
24.28	3630.49
24.32	3124.75
24.36	2908.01
24.4	3413.75
24.44	3106.69
24.48	3287.31
24.52	2600.95
24.56	2889.94
24.6	3251.19
24.64	3052.5
24.68	3052.5
24.72	2889.94
24.76	2763.51
24.8	2944.13
24.84	2835.76
24.88	2474.51
24.92	2510.64
24.96	2853.82
25	2582.89
25.04	2637.07
25.08	2438.39
25.12	2402.27
25.16	2420.33
25.2	2871.88
25.24	2456.45
25.28	2492.58
25.32	2871.88
25.36	2673.2
25.4	2781.57
25.44	2239.71
25.48	2835.76
25.52	2600.95
25.56	2402.27
25.6	2962.19
25.64	3052.5
25.68	2998.32
25.72	3124.75
25.76	3305.37
25.8	3793.05
25.84	3070.56
25.88	3684.68
25.92	3937.55
25.96	3504.06
26	4226.54
26.04	4118.17
26.08	4551.66
26.12	5310.27
26.16	5219.96
26.2	4009.8
26.24	3449.87
26.28	3323.44
26.32	2889.94
26.36	2727.38
26.4	3142.81
26.44	2998.32
26.48	2167.46
26.52	2438.39
26.56	2582.89
26.6	2510.64
26.64	2257.77
26.68	2203.58
26.72	2293.89
26.76	2420.33
26.8	2059.08
26.84	2257.77
26.88	2149.4
26.92	1697.84
26.96	2384.2
27	2113.27
27.04	2257.77
27.08	2510.64
27.12	2257.77
27.16	2637.07
27.2	2438.39
27.24	2528.7
27.28	2293.89
27.32	2402.27
27.36	2221.64
27.4	2203.58
27.44	2330.02
27.48	1715.9
27.52	2384.2
27.56	2456.45
27.6	1950.71
27.64	2167.46
27.68	2149.4
27.72	2239.71
27.76	1914.59
27.8	2167.46
27.84	1986.84
27.88	2113.27
27.92	2131.33
27.96	2257.77
28	1770.09
28.04	2041.02
28.08	2311.95
28.12	1968.77
28.16	2149.4
28.2	2275.83
28.24	2185.52
28.28	1842.34
28.32	1968.77
28.36	1986.84
28.4	1733.97
28.44	1932.65
28.48	2384.2
28.52	1752.03
28.56	1860.4
28.6	2022.96
28.64	1752.03
28.68	2041.02
28.72	2239.71
28.76	1968.77
28.8	2004.9
28.84	2022.96
28.88	1878.46
28.92	1860.4
28.96	1896.53
29	1661.72
29.04	2185.52
29.08	2022.96
29.12	2022.96
29.16	1950.71
29.2	2113.27
29.24	2330.02
29.28	2059.08
29.32	2438.39
29.36	2600.95
29.4	2510.64
29.44	2438.39
29.48	2420.33
29.52	1860.4
29.56	1770.09
29.6	1896.53
29.64	2257.77
29.68	1842.34
29.72	1806.21
29.76	1661.72
29.8	1553.34
29.84	1914.59
29.88	1824.28
29.92	1625.59
29.96	1986.84
30	2022.96
30.04	1607.53
30.08	1986.84
30.12	1499.16
30.16	1770.09
30.2	1679.78
30.24	1607.53
30.28	1697.84
30.32	1625.59
30.36	1860.4
30.4	1517.22
30.44	2113.27
30.48	1950.71
30.52	1842.34
30.56	2131.33
30.6	1932.65
30.64	2167.46
30.68	1788.15
30.72	2059.08
30.76	1860.4
30.8	1679.78
30.84	1752.03
30.88	1444.97
30.92	1733.97
30.96	1463.03
31	2095.21
31.04	1607.53
31.08	1715.9
31.12	1643.66
31.16	1661.72
31.2	1679.78
31.24	1932.65
31.28	1788.15
31.32	1788.15
31.36	1697.84
31.4	1715.9
31.44	1824.28
31.48	1806.21
31.52	1390.79
31.56	1426.91
31.6	1517.22
31.64	1860.4
31.68	1715.9
31.72	1752.03
31.76	1336.6
31.8	1715.9
31.84	1535.28
31.88	1950.71
31.92	1535.28
31.96	1914.59
32	2059.08
32.04	1679.78
32.08	1679.78
32.12	1932.65
32.16	1770.09
32.2	1733.97
32.24	1788.15
32.28	1661.72
32.32	1932.65
32.36	1715.9
32.4	1661.72
32.44	1354.66
32.48	1643.66
32.52	1589.47
32.56	1481.1
32.6	1246.29
32.64	1499.16
32.68	1282.41
32.72	1426.91
32.76	1589.47
32.8	1553.34
32.84	1625.59
32.88	1354.66
32.92	1824.28
32.96	1390.79
33	1571.41
33.04	1390.79
33.08	1517.22
33.12	1300.47
33.16	1697.84
33.2	1571.41
33.24	1607.53
33.28	1517.22
33.32	1210.16
33.36	1517.22
33.4	1300.47
33.44	1426.91
33.48	1463.03
33.52	1174.04
33.56	1354.66
33.6	1192.1
33.64	1607.53
33.68	1408.85
33.72	1643.66
33.76	1029.54
33.8	1336.6
33.84	1426.91
33.88	1354.66
33.92	1824.28
33.96	1264.35
34	1408.85
34.04	1083.73
34.08	1517.22
34.12	1463.03
34.16	1607.53
34.2	1463.03
34.24	1589.47
34.28	1336.6
34.32	1733.97
34.36	1607.53
34.4	1192.1
34.44	1571.41
34.48	1210.16
34.52	1354.66
34.56	1481.1
34.6	1625.59
34.64	1192.1
34.68	1065.67
34.72	1444.97
34.76	1607.53
34.8	1065.67
34.84	1463.03
34.88	1029.54
34.92	1083.73
34.96	1264.35
35	1318.54
35.04	1246.29
35.08	1318.54
35.12	1318.54
35.16	1264.35
35.2	1155.98
35.24	1065.67
35.28	1354.66
35.32	1372.72
35.36	1282.41
35.4	1192.1
35.44	1354.66
35.48	1228.23
35.52	1264.35
35.56	1300.47
35.6	1318.54
35.64	1246.29
35.68	1300.47
35.72	1336.6
35.76	1372.72
35.8	1011.48
35.84	1137.92
35.88	1228.23
35.92	1119.85
35.96	1246.29
36	1246.29
36.04	1192.1
36.08	1499.16
36.12	1083.73
36.16	1264.35
36.2	1318.54
36.24	1192.1
36.28	1318.54
36.32	1517.22
36.36	1155.98
36.4	1264.35
36.44	1390.79
36.48	1192.1
36.52	1228.23
36.56	1065.67
36.6	1246.29
36.64	939.232
36.68	1210.16
36.72	1155.98
36.76	1137.92
36.8	1065.67
36.84	939.232
36.88	1336.6
36.92	1282.41
36.96	1517.22
37	1318.54
37.04	1011.48
37.08	1210.16
37.12	1300.47
37.16	1318.54
37.2	1264.35
37.24	1011.48
37.28	1210.16
37.32	1264.35
37.36	1282.41
37.4	1047.6
37.44	1463.03
37.48	1354.66
37.52	1228.23
37.56	1210.16
37.6	1192.1
37.64	1192.1
37.68	1155.98
37.72	1354.66
37.76	1210.16
37.8	1318.54
37.84	1264.35
37.88	1192.1
37.92	1137.92
37.96	1011.48
38	1029.54
38.04	1336.6
38.08	1174.04
38.12	957.294
38.16	1300.47
38.2	1155.98
38.24	1029.54
38.28	1155.98
38.32	1192.1
38.36	1029.54
38.4	1029.54
38.44	1155.98
38.48	1246.29
38.52	1119.85
38.56	1336.6
38.6	1336.6
38.64	1607.53
38.68	1137.92
38.72	1192.1
38.76	1192.1
38.8	1354.66
38.84	1282.41
38.88	1101.79
38.92	1083.73
38.96	1174.04
39	1101.79
39.04	1047.6
39.08	1246.29
39.12	939.232
39.16	1101.79
39.2	1155.98
39.24	1192.1
39.28	1426.91
39.32	903.107
39.36	903.107
39.4	1155.98
39.44	885.045
39.48	1101.79
39.52	921.169
39.56	1210.16
39.6	903.107
39.64	1137.92
39.68	1083.73
39.72	1354.66
39.76	1083.73
39.8	1029.54
39.84	1228.23
39.88	939.232
39.92	866.983
39.96	1174.04
40	1137.92
40.04	903.107
40.08	1210.16
40.12	1011.48
40.16	1047.6
40.2	1047.6
40.24	1228.23
40.28	1318.54
40.32	1137.92
40.36	939.232
40.4	1119.85
40.44	1065.67
40.48	993.418
40.52	1083.73
40.56	1011.48
40.6	939.232
40.64	1083.73
40.68	1174.04
40.72	1029.54
40.76	1282.41
40.8	758.61
40.84	1065.67
40.88	1300.47
40.92	957.294
40.96	1137.92
41	1101.79
41.04	1336.6
41.08	1282.41
41.12	1390.79
41.16	1192.1
41.2	1228.23
41.24	830.859
41.28	1083.73
41.32	1174.04
41.36	1155.98
41.4	993.418
41.44	1029.54
41.48	1228.23
41.52	1246.29
41.56	1137.92
41.6	776.672
41.64	1083.73
41.68	1336.6
41.72	921.169
41.76	903.107
41.8	1119.85
41.84	1210.16
41.88	1354.66
41.92	1228.23
41.96	1065.67
42	1047.6
42.04	1119.85
42.08	1174.04
42.12	1083.73
42.16	1047.6
42.2	1011.48
42.24	812.797
42.28	1047.6
42.32	957.294
42.36	1011.48
42.4	1029.54
42.44	1155.98
42.48	1318.54
42.52	1101.79
42.56	957.294
42.6	1119.85
42.64	1137.92
42.68	975.356
42.72	1155.98
42.76	939.232
42.8	1101.79
42.84	1318.54
42.88	1155.98
42.92	1119.85
42.96	1155.98
43	939.232
43.04	993.418
43.08	1264.35
43.12	1155.98
43.16	1119.85
43.2	1318.54
43.24	1228.23
43.28	1264.35
43.32	1210.16
43.36	957.294
43.4	1155.98
43.44	1083.73
43.48	1174.04
43.52	975.356
43.56	1011.48
43.6	1101.79
43.64	1065.67
43.68	903.107
43.72	993.418
43.76	848.921
43.8	993.418
43.84	975.356
43.88	776.672
43.92	866.983
43.96	1065.67
44	993.418
44.04	1011.48
44.08	939.232
44.12	866.983
44.16	903.107
44.2	1083.73
44.24	776.672
44.28	957.294
44.32	975.356
44.36	957.294
44.4	1029.54
44.44	1029.54
44.48	921.169
44.52	1210.16
44.56	957.294
44.6	812.797
44.64	1083.73
44.68	993.418
44.72	975.356
44.76	1047.6
44.8	957.294
44.84	939.232
44.88	866.983
44.92	939.232
44.96	975.356
45	993.418
45.04	830.859
45.08	1011.48
45.12	1101.79
45.16	1047.6
45.2	1029.54
45.24	957.294
45.28	1137.92
45.32	921.169
45.36	939.232
45.4	1119.85
45.44	1174.04
45.48	885.045
45.52	848.921
45.56	848.921
45.6	1119.85
45.64	975.356
45.68	975.356
45.72	903.107
45.76	1101.79
45.8	939.232
45.84	993.418
45.88	830.859
45.92	830.859
45.96	776.672
46	975.356
46.04	758.61
46.08	848.921
46.12	957.294
46.16	903.107
46.2	957.294
46.24	939.232
46.28	1047.6
46.32	885.045
46.36	1047.6
46.4	1011.48
46.44	794.734
46.48	740.548
46.52	830.859
46.56	903.107
46.6	975.356
46.64	848.921
46.68	758.61
46.72	1101.79
46.76	1011.48
46.8	1192.1
46.84	1011.48
46.88	975.356
46.92	885.045
46.96	1047.6
47	993.418
47.04	812.797
47.08	722.486
47.12	686.362
47.16	1047.6
47.2	758.61
47.24	848.921
47.28	523.802
47.32	776.672
47.36	740.548
47.4	939.232
47.44	957.294
47.48	758.61
47.52	939.232
47.56	1011.48
47.6	885.045
47.64	885.045
47.68	686.362
47.72	812.797
47.76	866.983
47.8	1011.48
47.84	722.486
47.88	885.045
47.92	848.921
47.96	668.299
48	921.169
48.04	668.299
48.08	794.734
48.12	885.045
48.16	848.921
48.2	776.672
48.24	921.169
48.28	650.237
48.32	776.672
48.36	848.921
48.4	812.797
48.44	830.859
48.48	722.486
48.52	939.232
48.56	848.921
48.6	794.734
48.64	776.672
48.68	885.045
48.72	722.486
48.76	1011.48
48.8	740.548
48.84	686.362
48.88	614.113
48.92	848.921
48.96	848.921
49	704.424
49.04	632.175
49.08	704.424
49.12	704.424
49.16	686.362
49.2	668.299
49.24	848.921
49.28	487.678
49.32	776.672
49.36	686.362
49.4	650.237
49.44	650.237
49.48	704.424
49.52	939.232
49.56	758.61
49.6	776.672
49.64	668.299
49.68	740.548
49.72	758.61
49.76	668.299
49.8	866.983
49.84	993.418
49.88	686.362
49.92	704.424
49.96	740.548
50	794.734
50.04	559.927
50.08	794.734
50.12	559.927
50.16	704.424
50.2	632.175
50.24	794.734
50.28	812.797
50.32	523.802
50.36	541.864
50.4	866.983
50.44	740.548
50.48	541.864
50.52	541.864
50.56	758.61
50.6	722.486
50.64	740.548
50.68	848.921
50.72	505.74
50.76	848.921
50.8	668.299
50.84	596.051
50.88	559.927
50.92	632.175
50.96	704.424
51	650.237
51.04	758.61
51.08	740.548
51.12	577.989
51.16	722.486
51.2	758.61
51.24	577.989
51.28	740.548
51.32	614.113
51.36	596.051
51.4	812.797
51.44	559.927
51.48	614.113
51.52	758.61
51.56	523.802
51.6	794.734
51.64	758.61
51.68	614.113
51.72	614.113
51.76	614.113
51.8	614.113
51.84	668.299
51.88	668.299
51.92	559.927
51.96	776.672
52	523.802
52.04	469.616
52.08	559.927
52.12	632.175
52.16	686.362
52.2	704.424
52.24	722.486
52.28	740.548
52.32	740.548
52.36	596.051
52.4	559.927
52.44	614.113
52.48	866.983
52.52	632.175
52.56	704.424
52.6	722.486
52.64	975.356
52.68	614.113
52.72	740.548
52.76	650.237
52.8	686.362
52.84	668.299
52.88	758.61
52.92	541.864
52.96	668.299
53	487.678
53.04	704.424
53.08	704.424
53.12	776.672
53.16	668.299
53.2	686.362
53.24	523.802
53.28	668.299
53.32	505.74
53.36	505.74
53.4	577.989
53.44	794.734
53.48	559.927
53.52	469.616
53.56	577.989
53.6	523.802
53.64	596.051
53.68	632.175
53.72	541.864
53.76	614.113
53.8	596.051
53.84	523.802
53.88	397.367
53.92	541.864
53.96	505.74
54	541.864
54.04	469.616
54.08	686.362
54.12	541.864
54.16	704.424
54.2	686.362
54.24	614.113
54.28	541.864
54.32	451.554
54.36	577.989
54.4	686.362
54.44	704.424
54.48	596.051
54.52	505.74
54.56	523.802
54.6	650.237
54.64	433.492
54.68	505.74
54.72	577.989
54.76	505.74
54.8	668.299
54.84	758.61
54.88	559.927
54.92	614.113
54.96	722.486
55	523.802
55.04	433.492
55.08	487.678
55.12	740.548
55.16	433.492
55.2	632.175
55.24	541.864
55.28	505.74
55.32	668.299
55.36	596.051
55.4	686.362
55.44	487.678
55.48	505.74
55.52	505.74
55.56	559.927
55.6	650.237
55.64	577.989
55.68	559.927
55.72	451.554
55.76	505.74
55.8	487.678
55.84	523.802
55.88	668.299
55.92	704.424
55.96	668.299
56	830.859
56.04	541.864
56.08	668.299
56.12	686.362
56.16	451.554
56.2	668.299
56.24	505.74
56.28	704.424
56.32	614.113
56.36	668.299
56.4	686.362
56.44	559.927
56.48	794.734
56.52	379.305
56.56	541.864
56.6	577.989
56.64	668.299
56.68	686.362
56.72	523.802
56.76	451.554
56.8	577.989
56.84	596.051
56.88	469.616
56.92	650.237
56.96	541.864
57	307.056
57.04	523.802
57.08	577.989
57.12	505.74
57.16	577.989
57.2	704.424
57.24	451.554
57.28	686.362
57.32	487.678
57.36	559.927
57.4	397.367
57.44	523.802
57.48	451.554
57.52	469.616
57.56	505.74
57.6	487.678
57.64	451.554
57.68	487.678
57.72	487.678
57.76	776.672
57.8	523.802
57.84	505.74
57.88	686.362
57.92	415.429
57.96	830.859
58	415.429
58.04	469.616
58.08	577.989
58.12	632.175
58.16	577.989
58.2	596.051
58.24	577.989
58.28	397.367
58.32	722.486
58.36	559.927
58.4	505.74
58.44	541.864
58.48	614.113
58.52	487.678
58.56	614.113
58.6	740.548
58.64	559.927
58.68	433.492
58.72	487.678
58.76	523.802
58.8	577.989
58.84	541.864
58.88	505.74
58.92	361.243
58.96	668.299
59	505.74
59.04	704.424
59.08	379.305
59.12	469.616
59.16	559.927
59.2	559.927
59.24	596.051
59.28	596.051
59.32	614.113
59.36	559.927
59.4	632.175
59.44	559.927
59.48	469.616
59.52	632.175
59.56	614.113
59.6	650.237
59.64	614.113
59.68	415.429
59.72	632.175
59.76	505.74
59.8	523.802
59.84	487.678
59.88	487.678
59.92	505.74
59.96	577.989
60	505.74

270.932
59.96	469.616
59.98	379.305
60	361.243