File: program/database/experiments/MU/xrd/1102/parallel/1018/xrd/80.TXT
Sample
Comments
Filename	C:\Data\西出研\梅木\20211102オペ\LiFTFSI30wt_03_0003_0079-1_C_2θ.raw
Goniometer	SmartLab(In-plane)
Attachment	標準Zステージ
Monochromater	None
X	0
Y	0
Z	0.01652
ScanningMode	2Theta
ScanningType	Continuos Scanning
X-Ray	40kV/30mA
入射スリット	0.300mm
受光スリット1	20.000mm
受光スリット2	20.000mm
None
Start	5
Stop	60
Step	0.02
Speed	21.6746
Theta	0
5	5978.57
5.04	5436.71
5.08	5816.01
5.12	5563.14
5.16	5725.7
5.2	5888.26
5.24	5545.08
5.28	5978.57
5.32	5165.77
5.36	5617.33
5.4	5454.77
5.44	5635.39
5.48	4858.72
5.52	5725.7
5.56	5436.71
5.6	5490.89
5.64	5418.64
5.68	4967.09
5.72	5924.38
5.76	5725.7
5.8	5364.46
5.84	5003.21
5.88	5454.77
5.92	5274.15
5.96	5689.58
6	5274.15
6.04	4876.78
6.08	5418.64
6.12	4804.53
6.16	5021.28
6.2	5256.08
6.24	5292.21
6.28	5183.84
6.32	4804.53
6.36	4569.72
6.4	5021.28
6.44	5021.28
6.48	5165.77
6.52	4605.85
6.56	5147.71
6.6	4804.53
6.64	5400.58
6.68	4894.84
6.72	5454.77
6.76	5039.34
6.8	4930.97
6.84	5003.21
6.88	4280.73
6.92	4623.91
6.96	5003.21
7	5328.33
7.04	4822.59
7.08	4732.28
7.12	4949.03
7.16	4623.91
7.2	4858.72
7.24	5129.65
7.28	4750.34
7.32	4985.15
7.36	4912.9
7.4	4840.66
7.44	5147.71
7.48	5129.65
7.52	4768.41
7.56	4822.59
7.6	5165.77
7.64	4443.29
7.68	5075.46
7.72	5147.71
7.76	4822.59
7.8	4425.23
7.84	4371.04
7.88	5147.71
7.92	4569.72
7.96	4840.66
8	5346.4
8.04	4587.79
8.08	4876.78
8.12	4497.47
8.16	4623.91
8.2	4678.1
8.24	4587.79
8.28	4840.66
8.32	4786.47
8.36	4894.84
8.4	4208.48
8.44	4298.79
8.48	4714.22
8.52	4985.15
8.56	5382.52
8.6	5238.02
8.64	5454.77
8.68	4876.78
8.72	4840.66
8.76	4930.97
8.8	5093.53
8.84	4714.22
8.88	4280.73
8.92	4461.35
8.96	4569.72
9	4262.67
9.04	4641.97
9.08	5003.21
9.12	4226.54
9.16	4804.53
9.2	4443.29
9.24	4605.85
9.28	4641.97
9.32	4732.28
9.36	4623.91
9.4	4190.42
9.44	4407.16
9.48	4497.47
9.52	4136.23
9.56	4696.16
9.6	4533.6
9.64	4515.54
9.68	4497.47
9.72	4876.78
9.76	4533.6
9.8	4587.79
9.84	4660.03
9.88	4371.04
9.92	4298.79
9.96	4371.04
10	4280.73
10.04	4804.53
10.08	4515.54
10.12	4027.86
10.16	4082.05
10.2	4569.72
10.24	4425.23
10.28	4587.79
10.32	4479.41
10.36	4786.47
10.4	4732.28
10.44	4533.6
10.48	4551.66
10.52	4714.22
10.56	4371.04
10.6	4840.66
10.64	4804.53
10.68	4280.73
10.72	4407.16
10.76	4226.54
10.8	4641.97
10.84	4714.22
10.88	4641.97
10.92	4461.35
10.96	4190.42
11	4768.41
11.04	3901.42
11.08	4641.97
11.12	4479.41
11.16	4533.6
11.2	4461.35
11.24	4027.86
11.28	4389.1
11.32	4280.73
11.36	4967.09
11.4	4371.04
11.44	4136.23
11.48	4334.92
11.52	4136.23
11.56	4280.73
11.6	4316.85
11.64	4497.47
11.68	4407.16
11.72	4479.41
11.76	4407.16
11.8	4154.29
11.84	4641.97
11.88	4334.92
11.92	4154.29
11.96	4768.41
12	4786.47
12.04	3991.73
12.08	4569.72
12.12	4912.9
12.16	4949.03
12.2	4696.16
12.24	4497.47
12.28	4334.92
12.32	4298.79
12.36	4190.42
12.4	4461.35
12.44	4533.6
12.48	4750.34
12.52	4569.72
12.56	3829.18
12.6	4316.85
12.64	4497.47
12.68	4226.54
12.72	5003.21
12.76	4822.59
12.8	4425.23
12.84	4641.97
12.88	4786.47
12.92	4641.97
12.96	5057.4
13	4190.42
13.04	4678.1
13.08	4623.91
13.12	4371.04
13.16	4063.98
13.2	4605.85
13.24	4551.66
13.28	4569.72
13.32	4623.91
13.36	3829.18
13.4	4226.54
13.44	4533.6
13.48	4118.17
13.52	4623.91
13.56	4461.35
13.6	4226.54
13.64	4443.29
13.68	4623.91
13.72	3955.61
13.76	4407.16
13.8	3919.49
13.84	4045.92
13.88	4154.29
13.92	4244.6
13.96	4244.6
14	4082.05
14.04	4009.8
14.08	4804.53
14.12	4334.92
14.16	4515.54
14.2	4334.92
14.24	4497.47
14.28	4425.23
14.32	4190.42
14.36	4479.41
14.4	4172.36
14.44	4244.6
14.48	3955.61
14.52	4443.29
14.56	4027.86
14.6	4479.41
14.64	4515.54
14.68	4262.67
14.72	3973.67
14.76	4533.6
14.8	3702.74
14.84	4045.92
14.88	4479.41
14.92	4063.98
14.96	4172.36
15	3955.61
15.04	4136.23
15.08	4371.04
15.12	3937.55
15.16	4208.48
15.2	3829.18
15.24	3811.11
15.28	4027.86
15.32	4045.92
15.36	4226.54
15.4	4280.73
15.44	3793.05
15.48	4316.85
15.52	4298.79
15.56	3829.18
15.6	4298.79
15.64	4407.16
15.68	4009.8
15.72	4371.04
15.76	4190.42
15.8	3594.37
15.84	4009.8
15.88	3793.05
15.92	4569.72
15.96	3847.24
16	3720.8
16.04	4082.05
16.08	3793.05
16.12	3576.31
16.16	4280.73
16.2	4100.11
16.24	4190.42
16.28	4100.11
16.32	3811.11
16.36	3558.24
16.4	3937.55
16.44	4190.42
16.48	3594.37
16.52	3883.36
16.56	3793.05
16.6	3648.55
16.64	3865.3
16.68	3937.55
16.72	4262.67
16.76	3793.05
16.8	4497.47
16.84	4136.23
16.88	4027.86
16.92	3919.49
16.96	4208.48
17	4045.92
17.04	5201.9
17.08	5093.53
17.12	4515.54
17.16	5418.64
17.2	5779.89
17.24	6105.01
17.28	5436.71
17.32	4858.72
17.36	4497.47
17.4	3973.67
17.44	3973.67
17.48	4045.92
17.52	3811.11
17.56	4045.92
17.6	4118.17
17.64	3793.05
17.68	3666.62
17.72	4082.05
17.76	3558.24
17.8	3522.12
17.84	3612.43
17.88	3648.55
17.92	3413.75
17.96	4533.6
18	3973.67
18.04	4334.92
18.08	5039.34
18.12	5165.77
18.16	5906.32
18.2	6646.87
18.24	6249.5
18.28	5779.89
18.32	4985.15
18.36	5021.28
18.4	5888.26
18.44	4822.59
18.48	4605.85
18.52	4623.91
18.56	3847.24
18.6	3504.06
18.64	4226.54
18.68	4045.92
18.72	4316.85
18.76	4190.42
18.8	4461.35
18.84	4912.9
18.88	5129.65
18.92	6177.25
18.96	6177.25
19	5942.45
19.04	6068.88
19.08	5960.51
19.12	5527.02
19.16	5743.76
19.2	6466.25
19.24	6105.01
19.28	5454.77
19.32	5436.71
19.36	4894.84
19.4	4894.84
19.44	4497.47
19.48	4768.41
19.52	4569.72
19.56	4371.04
19.6	4949.03
19.64	4244.6
19.68	4136.23
19.72	3919.49
19.76	3937.55
19.8	3467.93
19.84	3865.3
19.88	3720.8
19.92	3811.11
19.96	3485.99
20	3901.42
20.04	3467.93
20.08	3467.93
20.12	3413.75
20.16	3594.37
20.2	3323.44
20.24	3305.37
20.28	3413.75
20.32	3720.8
20.36	3756.93
20.4	3847.24
20.44	3937.55
20.48	3630.49
20.52	3431.81
20.56	3793.05
20.6	3883.36
20.64	3793.05
20.68	3937.55
20.72	3576.31
20.76	3738.86
20.8	3865.3
20.84	3630.49
20.88	3648.55
20.92	4082.05
20.96	3323.44
21	3359.56
21.04	3467.93
21.08	3558.24
21.12	3666.62
21.16	3630.49
21.2	3485.99
21.24	4009.8
21.28	3449.87
21.32	3684.68
21.36	3666.62
21.4	4100.11
21.44	4172.36
21.48	4027.86
21.52	3251.19
21.56	3612.43
21.6	3738.86
21.64	3648.55
21.68	3558.24
21.72	3865.3
21.76	3594.37
21.8	3666.62
21.84	3305.37
21.88	3540.18
21.92	3937.55
21.96	3847.24
22	3666.62
22.04	3449.87
22.08	3522.12
22.12	3251.19
22.16	3287.31
22.2	3666.62
22.24	3485.99
22.28	3088.63
22.32	3449.87
22.36	3287.31
22.4	3648.55
22.44	3142.81
22.48	3323.44
22.52	3160.88
22.56	3269.25
22.6	3124.75
22.64	3287.31
22.68	3034.44
22.72	3178.94
22.76	3359.56
22.8	3106.69
22.84	3359.56
22.88	2853.82
22.92	3395.68
22.96	3504.06
23	3251.19
23.04	3178.94
23.08	3233.12
23.12	3070.56
23.16	3124.75
23.2	3467.93
23.24	3395.68
23.28	2980.25
23.32	3359.56
23.36	2926.07
23.4	3251.19
23.44	2763.51
23.48	3395.68
23.52	3341.5
23.56	2853.82
23.6	3955.61
23.64	3197
23.68	3197
23.72	3359.56
23.76	3702.74
23.8	3937.55
23.84	3847.24
23.88	3847.24
23.92	3576.31
23.96	4082.05
24	4063.98
24.04	3359.56
24.08	3684.68
24.12	3215.06
24.16	3160.88
24.2	3558.24
24.24	3323.44
24.28	3016.38
24.32	2817.69
24.36	3088.63
24.4	3178.94
24.44	3269.25
24.48	3323.44
24.52	2980.25
24.56	3269.25
24.6	2998.32
24.64	3233.12
24.68	2637.07
24.72	3215.06
24.76	2817.69
24.8	2835.76
24.84	2546.76
24.88	2709.32
24.92	2889.94
24.96	2655.14
25	2799.63
25.04	2962.19
25.08	2582.89
25.12	2817.69
25.16	2637.07
25.2	2781.57
25.24	2637.07
25.28	2962.19
25.32	2799.63
25.36	2962.19
25.4	3034.44
25.44	2564.82
25.48	2980.25
25.52	2853.82
25.56	2727.38
25.6	2528.7
25.64	2817.69
25.68	3052.5
25.72	2926.07
25.76	3269.25
25.8	3522.12
25.84	3197
25.88	3811.11
25.92	4443.29
25.96	4208.48
26	4623.91
26.04	4949.03
26.08	4425.23
26.12	4461.35
26.16	4298.79
26.2	3413.75
26.24	2889.94
26.28	3052.5
26.32	2889.94
26.36	2871.88
26.4	2474.51
26.44	2420.33
26.48	2420.33
26.52	2275.83
26.56	2835.76
26.6	1986.84
26.64	2384.2
26.68	2239.71
26.72	2167.46
26.76	2275.83
26.8	2402.27
26.84	2059.08
26.88	2546.76
26.92	2492.58
26.96	1878.46
27	2167.46
27.04	1986.84
27.08	2456.45
27.12	2239.71
27.16	2438.39
27.2	2257.77
27.24	2600.95
27.28	2149.4
27.32	2167.46
27.36	2149.4
27.4	2257.77
27.44	2203.58
27.48	2239.71
27.52	2293.89
27.56	2185.52
27.6	2004.9
27.64	2131.33
27.68	2239.71
27.72	1770.09
27.76	1625.59
27.8	2022.96
27.84	2059.08
27.88	2095.21
27.92	2221.64
27.96	2077.15
28	2456.45
28.04	2366.14
28.08	2492.58
28.12	2221.64
28.16	2077.15
28.2	2239.71
28.24	2095.21
28.28	1770.09
28.32	2059.08
28.36	1842.34
28.4	2221.64
28.44	1968.77
28.48	2059.08
28.52	2004.9
28.56	2077.15
28.6	1752.03
28.64	2113.27
28.68	2600.95
28.72	2149.4
28.76	1896.53
28.8	2131.33
28.84	2113.27
28.88	2059.08
28.92	2311.95
28.96	2131.33
29	1788.15
29.04	2131.33
29.08	1715.9
29.12	1878.46
29.16	1661.72
29.2	1679.78
29.24	2167.46
29.28	2564.82
29.32	2366.14
29.36	2763.51
29.4	2149.4
29.44	2221.64
29.48	1589.47
29.52	1986.84
29.56	1986.84
29.6	1914.59
29.64	1878.46
29.68	1715.9
29.72	1806.21
29.76	1842.34
29.8	2022.96
29.84	1752.03
29.88	1770.09
29.92	1661.72
29.96	1806.21
30	1571.41
30.04	1463.03
30.08	1788.15
30.12	1625.59
30.16	1806.21
30.2	1481.1
30.24	1517.22
30.28	1679.78
30.32	1752.03
30.36	2095.21
30.4	1535.28
30.44	1950.71
30.48	1986.84
30.52	1968.77
30.56	1553.34
30.6	1553.34
30.64	1661.72
30.68	1968.77
30.72	1643.66
30.76	1824.28
30.8	2167.46
30.84	2022.96
30.88	1679.78
30.92	1860.4
30.96	1733.97
31	1950.71
31.04	1968.77
31.08	1733.97
31.12	1860.4
31.16	2095.21
31.2	1625.59
31.24	1842.34
31.28	1661.72
31.32	1679.78
31.36	1788.15
31.4	1390.79
31.44	1697.84
31.48	1589.47
31.52	1679.78
31.56	1607.53
31.6	1643.66
31.64	1535.28
31.68	1607.53
31.72	1986.84
31.76	1571.41
31.8	1535.28
31.84	1625.59
31.88	1643.66
31.92	1697.84
31.96	1535.28
32	1535.28
32.04	1463.03
32.08	1517.22
32.12	1715.9
32.16	1535.28
32.2	1679.78
32.24	1390.79
32.28	1571.41
32.32	1426.91
32.36	1517.22
32.4	1481.1
32.44	1788.15
32.48	1318.54
32.52	1589.47
32.56	1499.16
32.6	1535.28
32.64	1679.78
32.68	1336.6
32.72	1571.41
32.76	1408.85
32.8	1589.47
32.84	1625.59
32.88	1589.47
32.92	1282.41
32.96	1589.47
33	1517.22
33.04	1517.22
33.08	1318.54
33.12	1354.66
33.16	1553.34
33.2	1246.29
33.24	1372.72
33.28	1481.1
33.32	1481.1
33.36	1643.66
33.4	1390.79
33.44	1463.03
33.48	1463.03
33.52	1517.22
33.56	1499.16
33.6	1372.72
33.64	1499.16
33.68	1354.66
33.72	1444.97
33.76	1246.29
33.8	1571.41
33.84	1300.47
33.88	1426.91
33.92	1372.72
33.96	1426.91
34	1499.16
34.04	1372.72
34.08	1336.6
34.12	1463.03
34.16	1390.79
34.2	1444.97
34.24	1625.59
34.28	1444.97
34.32	1607.53
34.36	1354.66
34.4	1354.66
34.44	1426.91
34.48	1047.6
34.52	1354.66
34.56	1517.22
34.6	1282.41
34.64	1499.16
34.68	1408.85
34.72	1137.92
34.76	1390.79
34.8	1228.23
34.84	1553.34
34.88	1246.29
34.92	1444.97
34.96	1372.72
35	1553.34
35.04	1336.6
35.08	1264.35
35.12	1318.54
35.16	1065.67
35.2	1444.97
35.24	993.418
35.28	1192.1
35.32	1499.16
35.36	1155.98
35.4	1101.79
35.44	1137.92
35.48	1101.79
35.52	1192.1
35.56	1372.72
35.6	1174.04
35.64	1390.79
35.68	1137.92
35.72	1517.22
35.76	1336.6
35.8	1426.91
35.84	1029.54
35.88	1065.67
35.92	1282.41
35.96	1408.85
36	1354.66
36.04	1444.97
36.08	1119.85
36.12	1083.73
36.16	1372.72
36.2	1354.66
36.24	1246.29
36.28	1300.47
36.32	1246.29
36.36	1426.91
36.4	1192.1
36.44	1228.23
36.48	1174.04
36.52	957.294
36.56	1065.67
36.6	1137.92
36.64	1192.1
36.68	1174.04
36.72	1354.66
36.76	1372.72
36.8	1264.35
36.84	1336.6
36.88	1210.16
36.92	1282.41
36.96	1228.23
37	1083.73
37.04	1282.41
37.08	1065.67
37.12	1372.72
37.16	1336.6
37.2	1300.47
37.24	1192.1
37.28	1264.35
37.32	1155.98
37.36	1282.41
37.4	1264.35
37.44	1101.79
37.48	1083.73
37.52	1246.29
37.56	1101.79
37.6	1264.35
37.64	975.356
37.68	1101.79
37.72	1426.91
37.76	1318.54
37.8	1246.29
37.84	1318.54
37.88	1155.98
37.92	1264.35
37.96	1336.6
38	1065.67
38.04	1101.79
38.08	1336.6
38.12	1246.29
38.16	1246.29
38.2	1065.67
38.24	1192.1
38.28	1463.03
38.32	1282.41
38.36	1137.92
38.4	1192.1
38.44	1463.03
38.48	1047.6
38.52	1155.98
38.56	1354.66
38.6	1390.79
38.64	1426.91
38.68	1137.92
38.72	1390.79
38.76	1137.92
38.8	993.418
38.84	1047.6
38.88	1192.1
38.92	1246.29
38.96	1155.98
39	975.356
39.04	1065.67
39.08	975.356
39.12	1137.92
39.16	1192.1
39.2	1174.04
39.24	1011.48
39.28	1083.73
39.32	1264.35
39.36	1065.67
39.4	957.294
39.44	1318.54
39.48	1192.1
39.52	1047.6
39.56	975.356
39.6	1192.1
39.64	921.169
39.68	1174.04
39.72	1083.73
39.76	1083.73
39.8	1047.6
39.84	1065.67
39.88	1047.6
39.92	1192.1
39.96	1137.92
40	1246.29
40.04	975.356
40.08	1192.1
40.12	1228.23
40.16	1101.79
40.2	1228.23
40.24	885.045
40.28	1083.73
40.32	1011.48
40.36	1065.67
40.4	1246.29
40.44	1228.23
40.48	957.294
40.52	1155.98
40.56	1155.98
40.6	903.107
40.64	1174.04
40.68	1101.79
40.72	1029.54
40.76	1083.73
40.8	1119.85
40.84	1137.92
40.88	1119.85
40.92	1155.98
40.96	1282.41
41	1065.67
41.04	1372.72
41.08	1390.79
41.12	1137.92
41.16	1155.98
41.2	1264.35
41.24	1372.72
41.28	1264.35
41.32	1155.98
41.36	975.356
41.4	1192.1
41.44	975.356
41.48	1029.54
41.52	939.232
41.56	1065.67
41.6	1119.85
41.64	1155.98
41.68	1011.48
41.72	1246.29
41.76	1192.1
41.8	1119.85
41.84	1047.6
41.88	957.294
41.92	1210.16
41.96	1192.1
42	848.921
42.04	1065.67
42.08	885.045
42.12	1083.73
42.16	1047.6
42.2	1192.1
42.24	939.232
42.28	1137.92
42.32	812.797
42.36	1083.73
42.4	939.232
42.44	830.859
42.48	993.418
42.52	1047.6
42.56	975.356
42.6	1047.6
42.64	1047.6
42.68	939.232
42.72	957.294
42.76	903.107
42.8	1228.23
42.84	1065.67
42.88	848.921
42.92	1318.54
42.96	1065.67
43	957.294
43.04	848.921
43.08	1210.16
43.12	1137.92
43.16	1011.48
43.2	1029.54
43.24	1246.29
43.28	1155.98
43.32	1011.48
43.36	848.921
43.4	830.859
43.44	848.921
43.48	1264.35
43.52	1119.85
43.56	1264.35
43.6	957.294
43.64	975.356
43.68	1228.23
43.72	1192.1
43.76	1029.54
43.8	812.797
43.84	903.107
43.88	939.232
43.92	885.045
43.96	1174.04
44	1174.04
44.04	975.356
44.08	1047.6
44.12	1426.91
44.16	921.169
44.2	848.921
44.24	1210.16
44.28	1174.04
44.32	1029.54
44.36	1029.54
44.4	993.418
44.44	1192.1
44.48	921.169
44.52	885.045
44.56	993.418
44.6	812.797
44.64	939.232
44.68	903.107
44.72	1083.73
44.76	921.169
44.8	903.107
44.84	1029.54
44.88	939.232
44.92	885.045
44.96	650.237
45	885.045
45.04	993.418
45.08	975.356
45.12	957.294
45.16	885.045
45.2	993.418
45.24	1011.48
45.28	1047.6
45.32	1155.98
45.36	794.734
45.4	975.356
45.44	866.983
45.48	848.921
45.52	885.045
45.56	866.983
45.6	1029.54
45.64	794.734
45.68	921.169
45.72	469.616
45.76	1228.23
45.8	939.232
45.84	1011.48
45.88	1137.92
45.92	939.232
45.96	957.294
46	776.672
46.04	1155.98
46.08	1083.73
46.12	758.61
46.16	830.859
46.2	939.232
46.24	1083.73
46.28	1065.67
46.32	848.921
46.36	740.548
46.4	957.294
46.44	866.983
46.48	939.232
46.52	903.107
46.56	866.983
46.6	885.045
46.64	939.232
46.68	776.672
46.72	722.486
46.76	812.797
46.8	957.294
46.84	957.294
46.88	523.802
46.92	848.921
46.96	830.859
47	812.797
47.04	975.356
47.08	921.169
47.12	794.734
47.16	885.045
47.2	885.045
47.24	740.548
47.28	1065.67
47.32	903.107
47.36	903.107
47.4	939.232
47.44	993.418
47.48	921.169
47.52	794.734
47.56	866.983
47.6	993.418
47.64	776.672
47.68	939.232
47.72	794.734
47.76	614.113
47.8	704.424
47.84	939.232
47.88	740.548
47.92	668.299
47.96	668.299
48	812.797
48.04	740.548
48.08	830.859
48.12	668.299
48.16	632.175
48.2	577.989
48.24	523.802
48.28	1137.92
48.32	614.113
48.36	596.051
48.4	830.859
48.44	848.921
48.48	866.983
48.52	668.299
48.56	740.548
48.6	939.232
48.64	722.486
48.68	885.045
48.72	903.107
48.76	758.61
48.8	993.418
48.84	758.61
48.88	614.113
48.92	939.232
48.96	686.362
49	668.299
49.04	758.61
49.08	812.797
49.12	866.983
49.16	830.859
49.2	614.113
49.24	885.045
49.28	668.299
49.32	632.175
49.36	722.486
49.4	668.299
49.44	830.859
49.48	704.424
49.52	776.672
49.56	686.362
49.6	686.362
49.64	903.107
49.68	848.921
49.72	776.672
49.76	885.045
49.8	704.424
49.84	614.113
49.88	740.548
49.92	686.362
49.96	632.175
50	614.113
50.04	903.107
50.08	686.362
50.12	740.548
50.16	614.113
50.2	830.859
50.24	559.927
50.28	614.113
50.32	704.424
50.36	451.554
50.4	686.362
50.44	614.113
50.48	740.548
50.52	668.299
50.56	776.672
50.6	812.797
50.64	704.424
50.68	596.051
50.72	614.113
50.76	487.678
50.8	632.175
50.84	776.672
50.88	722.486
50.92	577.989
50.96	632.175
51	668.299
51.04	668.299
51.08	505.74
51.12	668.299
51.16	740.548
51.2	740.548
51.24	559.927
51.28	632.175
51.32	541.864
51.36	596.051
51.4	632.175
51.44	866.983
51.48	686.362
51.52	614.113
51.56	668.299
51.6	614.113
51.64	650.237
51.68	614.113
51.72	632.175
51.76	650.237
51.8	794.734
51.84	632.175
51.88	686.362
51.92	632.175
51.96	523.802
52	632.175
52.04	614.113
52.08	451.554
52.12	433.492
52.16	686.362
52.2	776.672
52.24	632.175
52.28	523.802
52.32	668.299
52.36	722.486
52.4	740.548
52.44	505.74
52.48	704.424
52.52	541.864
52.56	505.74
52.6	596.051
52.64	866.983
52.68	632.175
52.72	577.989
52.76	650.237
52.8	776.672
52.84	704.424
52.88	577.989
52.92	830.859
52.96	650.237
53	758.61
53.04	523.802
53.08	668.299
53.12	758.61
53.16	668.299
53.2	650.237
53.24	704.424
53.28	758.61
53.32	650.237
53.36	704.424
53.4	686.362
53.44	577.989
53.48	559.927
53.52	577.989
53.56	668.299
53.6	505.74
53.64	596.051
53.68	505.74
53.72	776.672
53.76	668.299
53.8	469.616
53.84	577.989
53.88	577.989
53.92	632.175
53.96	686.362
54	704.424
54.04	668.299
54.08	668.299
54.12	451.554
54.16	686.362
54.2	614.113
54.24	469.616
54.28	704.424
54.32	596.051
54.36	632.175
54.4	650.237
54.44	614.113
54.48	541.864
54.52	487.678
54.56	469.616
54.6	505.74
54.64	632.175
54.68	523.802
54.72	559.927
54.76	632.175
54.8	451.554
54.84	668.299
54.88	650.237
54.92	632.175
54.96	487.678
55	704.424
55.04	686.362
55.08	596.051
55.12	397.367
55.16	632.175
55.2	451.554
55.24	632.175
55.28	451.554
55.32	559.927
55.36	415.429
55.4	469.616
55.44	650.237
55.48	577.989
55.52	668.299
55.56	559.927
55.6	577.989
55.64	866.983
55.68	523.802
55.72	505.74
55.76	632.175
55.8	559.927
55.84	577.989
55.88	740.548
55.92	686.362
55.96	487.678
56	614.113
56.04	614.113
56.08	632.175
56.12	451.554
56.16	614.113
56.2	812.797
56.24	794.734
56.28	451.554
56.32	577.989
56.36	668.299
56.4	577.989
56.44	469.616
56.48	794.734
56.52	451.554
56.56	704.424
56.6	559.927
56.64	614.113
56.68	650.237
56.72	650.237
56.76	650.237
56.8	596.051
56.84	577.989
56.88	415.429
56.92	559.927
56.96	596.051
57	523.802
57.04	559.927
57.08	650.237
57.12	397.367
57.16	379.305
57.2	668.299
57.24	469.616
57.28	487.678
57.32	740.548
57.36	668.299
57.4	686.362
57.44	541.864
57.48	577.989
57.52	397.367
57.56	487.678
57.6	451.554
57.64	361.243
57.68	343.181
57.72	559.927
57.76	596.051
57.8	577.989
57.84	650.237
57.88	523.802
57.92	541.864
57.96	451.554
58	921.169
58.04	632.175
58.08	704.424
58.12	632.175
58.16	523.802
58.2	614.113
58.24	596.051
58.28	577.989
58.32	650.237
58.36	523.802
58.4	559.927
58.44	559.927
58.48	469.616
58.52	668.299
58.56	487.678
58.6	505.74
58.64	577.989
58.68	541.864
58.72	505.74
58.76	596.051
58.8	487.678
58.84	614.113
58.88	632.175
58.92	487.678
58.96	559.927
59	487.678
59.04	704.424
59.08	415.429
59.12	541.864
59.16	505.74
59.2	577.989
59.24	505.74
59.28	668.299
59.32	740.548
59.36	505.74
59.4	343.181
59.44	830.859
59.48	469.616
59.52	487.678
59.56	577.989
59.6	614.113
59.64	397.367
59.68	614.113
59.72	686.362
59.76	487.678
59.8	523.802
59.84	487.678
59.88	596.051
59.92	776.672
59.96	361.243
60	668.299
59.98	307.056
60	505.74