File: program/database/experiments/MU/xrd/903_ppo_chloranil_liftfsi_for_xrd_50/xrd.csv
x,y
10,23768.2
10.06,24947
10.12,24149.6
10.18,23421.4
10.24,23976.2
10.3,24617.6
10.36,24808.3
10.42,25640.5
10.48,25051.1
10.54,26281.9
10.6,27876.9
10.66,29801.2
10.72,32072.3
10.78,35140.8
10.84,39024.2
10.9,29402.5
10.96,25397.8
11.02,24808.3
11.08,23802.8
11.14,24444.3
11.2,25103.1
11.26,23144.1
11.32,24236.2
11.38,25293.8
11.44,24357.6
11.5,24322.9
11.56,24270.9
11.62,24808.3
11.68,24444.3
11.74,23854.8
11.8,23820.2
11.86,24791
11.92,24825.7
11.98,24374.9
12.04,24392.3
12.1,24895
12.16,23490.8
12.22,24513.6
12.28,24773.7
12.34,25657.8
12.4,25051.1
12.46,24513.6
12.52,24322.9
12.58,23854.8
12.64,23785.5
12.7,25363.1
12.76,23837.5
12.82,24374.9
12.88,23005.4
12.94,24912.4
13,24340.3
13.06,24825.7
13.12,24444.3
13.18,24201.6
13.24,24635
13.3,23802.8
13.36,24964.4
13.42,24773.7
13.48,24773.7
13.54,23369.4
13.6,24218.9
13.66,24080.2
13.72,24808.3
13.78,24218.9
13.84,23924.2
13.9,24028.2
13.96,24028.2
14.02,24392.3
14.08,26229.9
14.14,25224.4
14.2,23924.2
14.26,23473.4
14.32,25137.7
14.38,24184.2
14.44,24097.6
14.5,23109.4
14.56,24184.2
14.62,23525.5
14.68,23525.5
14.74,24392.3
14.8,23906.9
14.86,23716.2
14.92,24253.6
14.98,23161.4
15.04,23958.9
15.1,24166.9
15.16,22710.6
15.22,24305.6
15.28,23352.1
15.34,23629.5
15.4,24531
15.46,24305.6
15.52,23681.5
15.58,23906.9
15.64,22121.2
15.7,23872.2
15.76,22450.6
15.82,24184.2
15.88,23889.5
15.94,22814.7
16,23508.1
16.06,23092
16.12,23456.1
16.18,23854.8
16.24,23941.5
16.3,23230.7
16.36,23126.7
16.42,23144.1
16.48,22173.2
16.54,23698.8
16.6,24045.5
16.66,23612.1
16.72,23456.1
16.78,24947
16.84,25397.8
16.9,25588.5
16.96,28188.9
17.02,33043.1
17.08,39145.5
17.14,47727
17.2,56880.6
17.26,39544.3
17.32,25363.1
17.38,22485.3
17.44,22814.7
17.5,24010.9
17.56,21393.1
17.62,22398.6
17.68,22225.2
17.74,21046.4
17.8,21982.5
17.86,21601.1
17.92,22173.2
17.98,22676
18.04,22259.9
18.1,24132.2
18.16,24149.6
18.22,29489.2
18.28,34239.3
18.34,39561.6
18.4,32783.1
18.46,23473.4
18.52,21947.8
18.58,20751.6
18.64,22363.9
18.7,22814.7
18.76,23837.5
18.82,25935.2
18.88,29211.8
18.94,36857.1
19,47467
19.06,63884.5
19.12,85867
19.18,77320.2
19.24,39492.3
19.3,24531
19.36,24860.4
19.42,26992.7
19.48,28951.7
19.54,29662.5
19.6,23074.7
19.66,20959.7
19.72,20231.5
19.78,20526.3
19.84,19572.8
19.9,20179.5
19.96,20352.9
20.02,18636.6
20.08,20300.9
20.14,19260.7
20.2,19555.4
20.26,20439.6
20.32,19364.7
20.38,18827.3
20.44,19676.8
20.5,19798.1
20.56,19364.7
20.62,18636.6
20.68,19018
20.74,18844.6
20.8,20248.9
20.86,18879.3
20.92,19607.4
20.98,18914
21.04,19694.1
21.1,19156.7
21.16,19607.4
21.22,19122
21.28,20196.9
21.34,19711.5
21.4,20231.5
21.46,19850.1
21.52,19919.5
21.58,21081
21.64,21670.5
21.7,22693.3
21.76,20162.2
21.82,19260.7
21.88,17908.5
21.94,18359.2
22,18775.3
22.06,17301.7
22.12,17769.8
22.18,19139.4
22.24,17839.1
22.3,17908.5
22.36,18237.9
22.42,17665.8
22.48,18463.2
22.54,18324.5
22.6,17509.7
22.66,18047.2
22.72,17769.8
22.78,17631.1
22.84,19572.8
22.9,19902.2
22.96,22519.9
23.02,25709.8
23.08,36094.3
23.14,42526.1
23.2,32020.3
23.26,20786.3
23.32,17995.2
23.38,17284.4
23.44,17492.4
23.5,17977.8
23.56,16798.9
23.62,16001.5
23.68,17527.1
23.74,17128.3
23.8,17527.1
23.86,16972.3
23.92,16625.6
23.98,16937.6
24.04,17527.1
24.1,18099.2
24.16,17007
24.22,16452.2
24.28,18601.9
24.34,18497.9
24.4,19902.2
24.46,20717
24.52,28171.6
24.58,38070.7
24.64,50587.5
24.7,44294.4
24.76,32609.7
24.82,32731.1
24.88,43757
24.94,52355.8
25,38313.4
25.06,22502.6
25.12,18567.3
25.18,18931.3
25.24,19260.7
25.3,18549.9
25.36,16296.2
25.42,16070.8
25.48,16174.8
25.54,16590.9
25.6,14666.6
25.66,15152
25.72,15221.3
25.78,14718.6
25.84,13921.1
25.9,15290.7
25.96,14701.2
26.02,15377.4
26.08,14805.3
26.14,14822.6
26.2,14181.2
26.26,14787.9
26.32,14042.5
26.38,14562.6
26.44,14493.2
26.5,15221.3
26.56,14909.3
26.62,15360
26.68,14597.2
26.74,14458.5
26.8,13747.7
26.86,13851.8
26.92,13487.7
26.98,13834.4
27.04,13487.7
27.1,13557
27.16,12811.6
27.22,13730.4
27.28,12794.2
27.34,13782.4
27.4,13366.3
27.46,12846.3
27.52,13609.1
27.58,13505
27.64,13193
27.7,13158.3
27.76,13383.7
27.82,13175.6
27.88,13505
27.94,12586.2
28,12447.5
28.06,12707.6
28.12,13037
28.18,12863.6
28.24,12152.8
28.3,12880.9
28.36,12499.5
28.42,13175.6
28.48,13175.6
28.54,12724.9
28.6,14198.5
28.66,14233.2
28.72,14770.6
28.78,20075.5
28.84,22970.7
28.9,29333.1
28.96,23941.5
29.02,16989.6
29.08,13089
29.14,12187.5
29.2,12083.5
29.26,12568.9
29.32,12083.5
29.38,11823.4
29.44,12135.5
29.5,11927.4
29.56,11650
29.62,12655.6
29.68,12308.8
29.74,11580.7
29.8,12170.1
29.86,11511.3
29.92,11598
29.98,11476.7
30.04,12534.2
30.1,11546
30.16,11702
30.22,11025.9
30.28,11615.4
30.34,11875.4
30.4,11927.4
30.46,11424.7
30.52,10436.5
30.58,11667.4
30.64,10904.6
30.7,10592.5
30.76,11338
30.82,11147.3
30.88,11563.4
30.94,11390
31,11303.3
31.06,11182
31.12,11806.1
31.18,11060.6
31.24,10956.6
31.3,11216.6
31.36,11719.4
31.42,11234
31.48,10055.1
31.54,11598
31.6,11875.4
31.66,11095.3
31.72,11303.3
31.78,13089
31.84,13262.3
31.9,15256
31.96,19104.7
32.02,22624
32.08,18584.6
32.14,14649.2
32.2,11875.4
32.26,11355.3
32.32,10748.5
32.38,11164.6
32.44,11008.6
32.5,11736.7
32.56,10887.2
32.62,10627.2
32.68,11962.1
32.74,12534.2
32.8,11615.4
32.86,11494
32.92,13817.1
32.98,14337.2
33.04,14250.5
33.1,14233.2
33.16,16590.9
33.22,22728
33.28,33493.9
33.34,50084.8
33.4,45473.3
33.46,30130.6
33.52,16296.2
33.58,11979.4
33.64,11407.3
33.7,10661.9
33.76,11112.6
33.82,10817.9
33.88,11216.6
33.94,11407.3
34,11442
34.06,12170.1
34.12,13297
34.18,14666.6
34.24,13661.1
34.3,12170.1
34.36,10835.2
34.42,10540.5
34.48,10055.1
34.54,11234
34.6,10488.5
34.66,11268.6
34.72,13210.3
34.78,15082.6
34.84,14319.8
34.9,13089
34.96,10956.6
35.02,10904.6
35.08,9829.72
35.14,9899.07
35.2,9656.36
35.26,9725.7
35.32,9829.72
35.38,8997.58
35.44,10020.4
35.5,9274.96
35.56,9864.39
35.62,9430.99
35.68,9933.74
35.74,9465.66
35.8,10332.5
35.86,9483
35.92,10505.8
35.98,10835.2
36.04,10765.9
36.1,11234
36.16,10835.2
36.22,10817.9
36.28,11806.1
36.34,13401
36.4,16140.2
36.46,13990.5
36.52,12014.1
36.58,10124.4
36.64,9795.05
36.7,9569.68
36.76,9205.61
36.82,9517.67
36.88,9639.02
36.94,10228.5
37,10731.2
37.06,12291.5
37.12,14007.8
37.18,15377.4
37.24,13574.4
37.3,11511.3
37.36,9812.39
37.42,9552.34
37.48,9326.97
37.54,9084.26
37.6,9222.95
37.66,9118.93
37.72,9552.34
37.78,10176.4
37.84,11684.7
37.9,12482.2
37.96,14250.5
38.02,17163
38.08,21757.1
38.14,28362.3
38.2,31569.5
38.26,23196.1
38.32,18601.9
38.38,15828.1
38.44,16660.3
38.5,13522.4
38.56,11546
38.62,9881.73
38.68,9708.37
38.74,9847.06
38.8,10072.4
38.86,10523.2
38.92,10956.6
38.98,9916.4
39.04,9483
39.1,8546.83
39.16,9049.58
39.22,9274.96
39.28,9292.29
39.34,9274.96
39.4,8598.84
39.46,8824.21
39.52,9049.58
39.58,8598.84
39.64,8893.56
39.7,8650.85
39.76,9118.93
39.82,8546.83
39.88,8598.84
39.94,8321.46
40,8460.15
40.06,8737.53
40.12,8702.86
40.18,8165.43
40.24,8980.24
40.3,8616.18
40.36,9014.91
40.42,8616.18
40.48,8980.24
40.54,8685.52
40.6,8269.45
40.66,9153.6
40.72,9552.34
40.78,10003.1
40.84,11407.3
40.9,12135.5
40.96,11476.7
41.02,12395.5
41.08,9985.75
41.14,9916.4
41.2,9517.67
41.26,9049.58
41.32,8373.47
41.38,9170.94
41.44,9309.63
41.5,8876.22
41.56,9032.25
41.62,9274.96
41.68,8702.86
41.74,8477.49
41.8,8789.54
41.86,8650.85
41.92,8130.76
41.98,8824.21
42.04,8494.82
42.1,9222.95
42.16,9188.28
42.22,8650.85
42.28,8997.58
42.34,9448.32
42.4,10367.1
42.46,11511.3
42.52,10297.8
42.58,9205.61
42.64,8529.49
42.7,8546.83
42.76,8234.78
42.82,9396.31
42.88,9430.99
42.94,8789.54
43,9153.6
43.06,9396.31
43.12,8737.53
43.18,9465.66
43.24,9656.36
43.3,8252.11
43.36,8581.5
43.42,8598.84
43.48,8200.1
43.54,7749.36
43.6,8321.46
43.66,8789.54
43.72,7523.98
43.78,8269.45
43.84,9604.35
43.9,10193.8
43.96,10072.4
44.02,10627.2
44.08,10141.8
44.14,9118.93
44.2,8165.43
44.26,9257.62
44.32,11650
44.38,12984.9
44.44,14631.9
44.5,13245
44.56,11234
44.62,9378.98
44.68,8044.08
44.74,8217.44
44.8,7940.06
44.86,8044.08
44.92,7888.05
44.98,8165.43
45.04,8148.09
45.1,8720.19
45.16,8373.47
45.22,7662.68
45.28,8373.47
45.34,7853.38
45.4,8633.51
45.46,7593.33
45.52,7506.65
45.58,8026.74
45.64,6726.51
45.7,7367.96
45.76,7471.98
45.82,7628
45.88,7697.35
45.94,7732.02
46,7211.93
46.06,7107.91
46.12,7194.59
46.18,7402.63
46.24,7593.33
46.3,7385.29
46.36,7263.94
46.42,8061.41
46.48,7575.99
46.54,7697.35
46.6,7801.37
46.66,8286.79
46.72,8182.77
46.78,9066.92
46.84,10557.8
46.9,10107.1
46.96,8650.85
47.02,7853.38
47.08,7784.03
47.14,8096.08
47.2,7523.98
47.26,8252.11
47.32,9812.39
47.38,9621.69
47.44,8442.81
47.5,8460.15
47.56,8148.09
47.62,7107.91
47.68,7142.58
47.74,7263.94
47.8,7038.57
47.86,6882.54
47.92,7038.57
47.98,7333.28
48.04,7315.95
48.1,7090.58
48.16,7523.98
48.22,7610.67
48.28,8408.14
48.34,9118.93
48.4,8668.19
48.46,8494.82
48.52,8148.09
48.58,8165.43
48.64,7593.33
48.7,7055.9
48.76,6934.55
48.82,7194.59
48.88,6431.79
48.94,6691.84
49,6778.52
49.06,7454.64
49.12,8113.42
49.18,8425.48
49.24,8442.81
49.3,9864.39
49.36,8564.17
49.42,8442.81
49.48,7402.63
49.54,8217.44
49.6,7471.98
49.66,7090.58
49.72,7818.7
49.78,7732.02
49.84,7662.68
49.9,8494.82
49.96,8078.75
50.02,7471.98
50.08,7870.71
50.14,6743.85
50.2,6726.51
50.26,6518.48
50.32,7281.28
50.38,6691.84
50.44,7142.58
50.5,6414.46
50.56,6501.14
50.62,7038.57
50.68,6951.88
50.74,6778.52
50.8,7055.9
50.86,7246.6
50.92,7402.63
50.98,6709.18
51.04,7194.59
51.1,7038.57
51.16,8026.74
51.22,8668.19
51.28,7766.69
51.34,8200.1
51.4,8096.08
51.46,7541.32
51.52,6865.2
51.58,6518.48
51.64,6223.76
51.7,5911.7
51.76,5911.7
51.82,6015.72
51.88,5460.96
51.94,5981.05
52,5981.05
52.06,5478.29
52.12,5946.38
52.18,6622.49
52.24,6379.78
52.3,6570.48
52.36,5946.38
52.42,6431.79
52.48,5616.98
52.54,4680.82
52.6,5443.62
52.66,5443.62
52.72,5530.3
52.78,5651.66
52.84,4871.52
52.9,5027.55
52.96,5668.99
53.02,5322.27
53.08,5374.27
53.14,5148.9
53.2,4836.85
53.26,5721
53.32,6102.4
53.38,6657.17
53.44,5894.37
53.5,5686.33
53.56,6258.43
53.62,5512.97
53.68,5374.27
53.74,5391.61
53.8,4906.19
53.86,5374.27
53.92,5270.26
53.98,6119.74
54.04,6657.17
54.1,7454.64
54.16,7471.98
54.22,7003.89
54.28,6483.8
54.34,5304.93
54.4,5304.93
54.46,5148.9
54.52,5200.91
54.58,4420.77
54.64,5027.55
54.7,4854.18
54.76,5079.56
54.82,4559.47
54.88,5183.57
54.94,4559.47
55,4334.09
55.06,4646.15
55.12,4472.78
55.18,4923.53
55.24,5010.21
55.3,5478.29
55.36,5460.96
55.42,4906.19
55.48,5200.91
55.54,4386.1
55.6,5062.22
55.66,4472.78
55.72,5044.88
55.78,4663.48
55.84,5044.88
55.9,4698.16
55.96,5096.89
56.02,3796.67
56.08,4299.42
56.14,3952.69
56.2,4594.14
56.26,4472.78
56.32,4940.87
56.38,5703.67
56.44,5963.71
56.5,5356.94
56.56,5114.23
56.62,5096.89
56.68,5218.25
56.74,4611.47
56.8,4195.4
56.86,4108.72
56.92,4386.1
56.98,4368.77
57.04,4611.47
57.1,4108.72
57.16,3952.69
57.22,3761.99
57.28,4438.11
57.34,4334.09
57.4,4230.07
57.46,4490.12
57.52,4455.45
57.58,4542.13
57.64,4732.83
57.7,4247.41
57.76,4386.1
57.82,4698.16
57.88,4091.38
57.94,4074.05
58,3848.67
58.06,3779.33
58.12,3987.37
58.18,3761.99
58.24,3866.01
58.3,4160.73
58.36,4403.44
58.42,4472.78
58.48,3970.03
58.54,4316.76
58.6,4334.09
58.66,4004.7
58.72,4022.04
58.78,3987.37
58.84,4316.76
58.9,4403.44
58.96,4160.73
59.02,4282.08
59.08,3918.02
59.14,4160.73
59.2,4195.4
59.26,3918.02
59.32,3848.67
59.38,3623.3
59.44,3900.68
59.5,3814
59.56,3900.68
59.62,4455.45
59.68,4680.82
59.74,4871.52
59.8,5998.38
59.86,6137.08
59.92,6067.73
59.98,4888.86
60.04,4854.18
60.1,4663.48
60.16,4160.73
60.22,4646.15
60.28,3831.34
60.34,4056.71
60.4,4022.04
60.46,3918.02
60.52,3866.01
60.58,3918.02
60.64,3866.01
60.7,3866.01
60.76,4178.07
60.82,3692.65
60.88,3848.67
60.94,3952.69
61,4542.13
61.06,3831.34
61.12,4576.8
61.18,4143.39
61.24,4715.49
61.3,4819.51
61.36,4455.45
61.42,4074.05
61.48,3588.63
61.54,3883.35
61.6,3623.3
61.66,4022.04
61.72,3397.93
61.78,3605.97
61.84,3935.36
61.9,3779.33
61.96,3311.25
62.02,3415.26
62.08,3207.23
62.14,3987.37
62.2,3571.29
62.26,3814
62.32,4420.77
62.38,3709.98
62.44,4646.15
62.5,3918.02
62.56,3918.02
62.62,3536.62
62.68,4074.05
62.74,4143.39
62.8,3640.64
62.86,3432.6
62.92,3588.63
62.98,4004.7
63.04,3779.33
63.1,3588.63
63.16,3970.03
63.22,3605.97
63.28,3900.68
63.34,3675.31
63.4,3571.29
63.46,3519.28
63.52,3796.67
63.58,3640.64
63.64,3623.3
63.7,3328.58
63.76,3779.33
63.82,3623.3
63.88,3328.58
63.94,3571.29
64,4282.08
64.06,3935.36
64.12,4022.04
64.18,3744.66
64.24,3640.64
64.3,3328.58
64.36,3380.59
64.42,3692.65
64.48,3900.68
64.54,3935.36
64.6,4195.4
64.66,4490.12
64.72,4368.77
64.78,4594.14
64.84,4698.16
64.9,3970.03
64.96,3761.99
65.02,3432.6
65.08,3918.02
65.14,3692.65
65.2,3866.01
65.26,4264.75
65.32,4576.8
65.38,4438.11
65.44,5443.62
65.5,4698.16
65.56,4091.38
65.62,4299.42
65.68,4542.13
65.74,3831.34
65.8,3900.68
65.86,4056.71
65.92,4299.42
65.98,4854.18
66.04,4767.5
66.1,4282.08
66.16,3883.35
66.22,3727.32
66.28,3397.93
66.34,3328.58
66.4,3293.91
66.46,3276.57
66.52,3536.62
66.58,3467.27
66.64,3380.59
66.7,3744.66
66.76,3345.92
66.82,4091.38
66.88,3675.31
66.94,3935.36
67,3970.03
67.06,3501.95
67.12,3709.98
67.18,3449.94
67.24,3449.94
67.3,3189.89
67.36,3484.61
67.42,3311.25
67.48,3883.35
67.54,3449.94
67.6,3692.65
67.66,3605.97
67.72,3744.66
67.78,3727.32
67.84,3467.27
67.9,3709.98
67.96,3363.26
68.02,2964.52
68.08,3484.61
68.14,3259.24
68.2,3484.61
68.26,3016.53
68.32,3033.86
68.38,3207.23
68.44,3623.3
68.5,3657.97
68.56,3605.97
68.62,3848.67
68.68,3831.34
68.74,3952.69
68.8,3935.36
68.86,3467.27
68.92,3640.64
68.98,3675.31
69.04,3571.29
69.1,3415.26
69.16,3172.56
69.22,3519.28
69.28,3848.67
69.34,3068.54
69.4,3380.59
69.46,2947.18
69.52,2929.85
69.58,3623.3
69.64,3103.21
69.7,2843.16
69.76,3137.88
69.82,2964.52
69.88,3033.86
69.94,2964.52
70,3103.21
70.06,3415.26
70.12,3120.55
70.18,2687.14
70.24,3137.88
70.3,3397.93
70.36,3172.56
70.42,3033.86
70.48,3120.55
70.54,3033.86
70.6,2704.47
70.66,2947.18
70.72,3276.57
70.78,3311.25
70.84,3241.9
70.9,3467.27
70.96,3120.55
71.02,3189.89
71.08,3068.54
71.14,3207.23
71.2,3311.25
71.26,3276.57
71.32,2825.83
71.38,3276.57
71.44,3189.89
71.5,3172.56
71.56,3155.22
71.62,2860.5
71.68,3311.25
71.74,3328.58
71.8,2843.16
71.86,3207.23
71.92,3137.88
71.98,3103.21
72.04,3397.93
72.1,3484.61
72.16,3657.97
72.22,3501.95
72.28,3952.69
72.34,3640.64
72.4,3397.93
72.46,4282.08
72.52,3900.68
72.58,3814
72.64,3536.62
72.7,3449.94
72.76,4247.41
72.82,3727.32
72.88,3987.37
72.94,3571.29
73,3692.65
73.06,3553.96
73.12,3397.93
73.18,3519.28
73.24,3432.6
73.3,3397.93
73.36,3640.64
73.42,3103.21
73.48,3467.27
73.54,3536.62
73.6,3328.58
73.66,3571.29
73.72,3727.32
73.78,3380.59
73.84,3796.67
73.9,3328.58
73.96,3900.68
74.02,3761.99
74.08,3501.95
74.14,4299.42
74.2,4264.75
74.26,4316.76
74.32,4455.45
74.38,3883.35
74.44,3970.03
74.5,3709.98
74.56,4039.37
74.62,4108.72
74.68,3588.63
74.74,3779.33
74.8,4126.06
74.86,4039.37
74.92,4368.77
74.98,3519.28
75.04,3900.68
75.1,4420.77
75.16,3952.69
75.22,4091.38
75.28,3779.33
75.34,3779.33
75.4,3831.34
75.46,3900.68
75.52,4022.04
75.58,4750.17
75.64,4663.48
75.7,4906.19
75.76,5200.91
75.82,5374.27
75.88,5755.67
75.94,5512.97
76,5339.6
76.06,5998.38
76.12,6102.4
76.18,6189.08
76.24,6466.47
76.3,6275.77
76.36,6882.54
76.42,5686.33
76.48,5495.63
76.54,4940.87
76.6,4403.44
76.66,4715.49
76.72,4126.06
76.78,4316.76
76.84,3970.03
76.9,4004.7
76.96,4628.81
77.02,4004.7
77.08,3883.35
77.14,4264.75
77.2,4160.73
77.26,4212.74
77.32,4004.7
77.38,4056.71
77.44,4351.43
77.5,3571.29
77.56,3987.37
77.62,4178.07
77.68,4420.77
77.74,4108.72
77.8,3848.67
77.86,3727.32
77.92,3553.96
77.98,3831.34
78.04,3883.35
78.1,4230.07
78.16,3640.64
78.22,3657.97
78.28,4264.75
78.34,4455.45
78.4,4403.44
78.46,4680.82
78.52,4594.14
78.58,4715.49
78.64,4351.43
78.7,4351.43
78.76,4524.79
78.82,4316.76
78.88,4628.81
78.94,4056.71
79,4767.5
79.06,4403.44
79.12,4126.06
79.18,3744.66
79.24,3866.01
79.3,4282.08
79.36,4368.77
79.42,4334.09
79.48,4247.41
79.54,4507.46
79.6,4282.08
79.66,4490.12
79.72,4386.1
79.78,4282.08
79.84,4386.1
79.9,4022.04
79.96,4056.71
80.02,3831.34
80.08,4178.07
80.14,3744.66
80.2,4108.72
80.26,3571.29
80.32,3380.59
80.38,3467.27
80.44,3536.62
80.5,3796.67
80.56,3588.63
80.62,3692.65
80.68,3484.61
80.74,3657.97
80.8,3536.62
80.86,3501.95
80.92,3397.93
80.98,3709.98
81.04,4143.39
81.1,4056.71
81.16,3449.94
81.22,3432.6
81.28,3918.02
81.34,4143.39
81.4,3779.33
81.46,3692.65
81.52,4316.76
81.58,3866.01
81.64,3814
81.7,3987.37
81.76,3761.99
81.82,4091.38
81.88,4299.42
81.94,3935.36
82,4195.4
82.06,4472.78
82.12,4178.07
82.18,4160.73
82.24,4022.04
82.3,4022.04
82.36,3397.93
82.42,3952.69
82.48,3744.66
82.54,3900.68
82.6,3744.66
82.66,3814
82.72,4178.07
82.78,3744.66
82.84,3484.61
82.9,3727.32
82.96,3692.65
83.02,3831.34
83.08,3848.67
83.14,4039.37
83.2,3952.69
83.26,3796.67
83.32,3866.01
83.38,3692.65
83.44,3692.65
83.5,4039.37
83.56,3831.34
83.62,3345.92
83.68,3276.57
83.74,3380.59
83.8,3779.33
83.86,3709.98
83.92,3657.97
83.98,3224.56
84.04,3241.9
84.1,3657.97
84.16,3415.26
84.22,3761.99
84.28,4074.05
84.34,3605.97
84.4,3952.69
84.46,4160.73
84.52,4022.04
84.58,4178.07
84.64,3623.3
84.7,3536.62
84.76,3814
84.82,3709.98
84.88,3536.62
84.94,3484.61
85,3796.67
85.06,3103.21
85.12,3692.65
85.18,3293.91
85.24,3380.59
85.3,3380.59
85.36,3363.26
85.42,3623.3
85.48,3415.26
85.54,3727.32
85.6,3345.92
85.66,3553.96
85.72,3415.26
85.78,3467.27
85.84,3692.65
85.9,3328.58
85.96,3761.99
86.02,3501.95
86.08,3415.26
86.14,3120.55
86.2,3571.29
86.26,3276.57
86.32,2981.86
86.38,3484.61
86.44,3449.94
86.5,3761.99
86.56,3449.94
86.62,3848.67
86.68,3172.56
86.74,3467.27
86.8,3207.23
86.86,3120.55
86.92,3241.9
86.98,3415.26
87.04,3311.25
87.1,3571.29
87.16,3311.25
87.22,3363.26
87.28,3311.25
87.34,3051.2
87.4,3467.27
87.46,3224.56
87.52,3137.88
87.58,3016.53
87.64,3588.63
87.7,3103.21
87.76,3085.87
87.82,3068.54
87.88,3068.54
87.94,3553.96
88,3033.86
88.06,3519.28
88.12,3345.92
88.18,3345.92
88.24,3033.86
88.3,3363.26
88.36,3207.23
88.42,3068.54
88.48,3571.29
88.54,3033.86
88.6,3224.56
88.66,3345.92
88.72,2825.83
88.78,3623.3
88.84,3397.93
88.9,3345.92
88.96,3068.54
89.02,3415.26
89.08,3571.29
89.14,3085.87
89.2,3293.91
89.26,3224.56
89.32,3709.98
89.38,3311.25
89.44,3380.59
89.5,3189.89
89.56,3189.89
89.62,3623.3
89.68,3033.86
89.74,3311.25
89.8,3918.02
89.86,5512.97
89.92,13418.4
89.98,10297.8
90,7541.32