File: database/experiments/MU/xrd/930(913)_ppo_chloranil_liftfsi_for_xrd/xrd.csv
x,y
10,24132.2
10.06,26507.3
10.12,24704.3
10.18,24045.5
10.24,25588.5
10.3,27010.1
10.36,25848.5
10.42,25259.1
10.48,25519.1
10.54,25519.1
10.6,27010.1
10.66,28362.3
10.72,27131.4
10.78,28293
10.84,28293
10.9,28223.6
10.96,26108.6
11.02,26611.3
11.08,26507.3
11.14,25155.1
11.2,25796.5
11.26,24374.9
11.32,25952.5
11.38,25900.5
11.44,26143.2
11.5,25432.5
11.56,25831.2
11.62,25727.2
11.68,25848.5
11.74,25640.5
11.8,26108.6
11.86,25865.9
11.92,26958.1
11.98,26819.4
12.04,25068.4
12.1,26212.6
12.16,26854
12.22,27287.4
12.28,26091.2
12.34,26732.7
12.4,25744.5
12.46,25987.2
12.52,26247.3
12.58,27131.4
12.64,26368.6
12.7,26715.3
12.76,27443.5
12.82,26732.7
12.88,27495.5
12.94,27148.8
13,27790.2
13.06,27824.9
13.12,27304.8
13.18,27651.5
13.24,27079.4
13.3,28102.3
13.36,26940.7
13.42,25640.5
13.48,27374.1
13.54,26420.6
13.6,27703.5
13.66,26559.3
13.72,26992.7
13.78,27356.8
13.84,27010.1
13.9,26594
13.96,26611.3
14.02,27824.9
14.08,26958.1
14.14,27200.8
14.2,27512.8
14.26,27426.1
14.32,27512.8
14.38,28188.9
14.44,28258.3
14.5,27928.9
14.56,27928.9
14.62,28414.3
14.68,26403.3
14.74,28050.2
14.8,27478.1
14.86,26611.3
14.92,28414.3
14.98,27686.2
15.04,29714.5
15.1,26628.7
15.16,28067.6
15.22,28501
15.28,27062.1
15.34,27114.1
15.4,27859.5
15.46,26628.7
15.52,27391.5
15.58,26940.7
15.64,26992.7
15.7,27703.5
15.76,26559.3
15.82,27200.8
15.88,27599.5
15.94,25952.5
16,27322.1
16.06,26490
16.12,27530.2
16.18,26229.9
16.24,28119.6
16.3,26698
16.36,26663.3
16.42,25484.5
16.48,26212.6
16.54,26490
16.6,26524.6
16.66,26160.6
16.72,26264.6
16.78,27270.1
16.84,27114.1
16.9,27027.4
16.96,28761
17.02,29818.6
17.08,31968.3
17.14,34326
17.2,34932.8
17.26,31136.1
17.32,29610.5
17.38,26229.9
17.44,26333.9
17.5,26229.9
17.56,26091.2
17.62,24166.9
17.68,24947
17.74,24479
17.8,26229.9
17.86,25675.2
17.92,24374.9
17.98,26021.9
18.04,24721.7
18.1,25623.2
18.16,27339.5
18.22,27842.2
18.28,29402.5
18.34,29073.1
18.4,27478.1
18.46,26472.6
18.52,26594
18.58,24097.6
18.64,24461.6
18.7,23664.1
18.76,24531
18.82,26628.7
18.88,28171.6
18.94,29645.2
19,34794.1
19.06,40220.4
19.12,42162.1
19.18,39578.9
19.24,33129.8
19.3,28518.3
19.36,25987.2
19.42,25709.8
19.48,26542
19.54,25605.8
19.6,25675.2
19.66,24635
19.72,24218.9
19.78,23092
19.84,24080.2
19.9,22780
19.96,23941.5
20.02,23716.2
20.08,21514.4
20.14,21999.9
20.2,22884
20.26,24080.2
20.32,24253.6
20.38,23629.5
20.44,23958.9
20.5,21982.5
20.56,22866.7
20.62,23109.4
20.68,23421.4
20.74,22311.9
20.8,23317.4
20.86,21947.8
20.92,22259.9
20.98,22710.6
21.04,22554.6
21.1,22277.2
21.16,22728
21.22,22190.6
21.28,22710.6
21.34,22624
21.4,22242.6
21.46,22710.6
21.52,21895.8
21.58,22936
21.64,22606.6
21.7,22866.7
21.76,24097.6
21.82,21653.1
21.88,22415.9
21.94,23733.5
22,21843.8
22.06,22086.5
22.12,21479.8
22.18,22225.2
22.24,22138.5
22.3,22519.9
22.36,22624
22.42,22121.2
22.48,21670.5
22.54,21081
22.6,22294.6
22.66,21791.8
22.72,21982.5
22.78,22173.2
22.84,22225.2
22.9,22398.6
22.96,24704.3
23.02,26975.4
23.08,27824.9
23.14,28483.7
23.2,25536.5
23.26,22658.6
23.32,21791.8
23.38,22121.2
23.44,21809.2
23.5,21479.8
23.56,21861.2
23.62,20734.3
23.68,21549.1
23.74,20907.7
23.8,20925
23.86,21618.5
23.92,20734.3
23.98,20179.5
24.04,20838.3
24.1,21549.1
24.16,21029
24.22,20352.9
24.28,21237.1
24.34,20959.7
24.4,22832
24.46,24739
24.52,26368.6
24.58,28934.4
24.64,30858.7
24.7,28379.6
24.76,27720.9
24.82,28136.9
24.88,27859.5
24.94,27824.9
25,25623.2
25.06,23109.4
25.12,21722.5
25.18,20734.3
25.24,20144.9
25.3,20110.2
25.36,20179.5
25.42,19087.3
25.48,17960.5
25.54,19226
25.6,18758
25.66,19295.4
25.72,19208.7
25.78,18480.6
25.84,17839.1
25.9,17197.7
25.96,17475.1
26.02,17353.7
26.08,18497.9
26.14,17388.4
26.2,16642.9
26.26,16851
26.32,17821.8
26.38,16694.9
26.44,17145.7
26.5,17787.1
26.56,16625.6
26.62,16642.9
26.68,17093.7
26.74,16729.6
26.8,16018.8
26.86,17059
26.92,17024.3
26.98,16209.5
27.04,16400.2
27.1,17041.7
27.16,16729.6
27.22,16712.3
27.28,16486.9
27.34,16261.5
27.4,16296.2
27.46,16226.8
27.52,15672.1
27.58,15394.7
27.64,16070.8
27.7,15706.8
27.76,15533.4
27.82,15758.8
27.88,15394.7
27.94,15845.4
28,16573.6
28.06,15966.8
28.12,15828.1
28.18,15672.1
28.24,16053.5
28.3,15256
28.36,15342.7
28.42,14874.6
28.48,15325.4
28.54,15481.4
28.6,15932.1
28.66,16903
28.72,17249.7
28.78,18515.2
28.84,19104.7
28.9,18168.5
28.96,18133.8
29.02,16972.3
29.08,16400.2
29.14,15186.7
29.2,14423.9
29.26,15013.3
29.32,15689.4
29.38,14094.5
29.44,14805.3
29.5,14319.8
29.56,14753.3
29.62,15013.3
29.68,14874.6
29.74,14007.8
29.8,14510.5
29.86,14129.1
29.92,14302.5
29.98,14354.5
30.04,14423.9
30.1,14129.1
30.16,13522.4
30.22,13661.1
30.28,14735.9
30.34,14267.8
30.4,14042.5
30.46,12846.3
30.52,13522.4
30.58,13730.4
30.64,13175.6
30.7,13574.4
30.76,13193
30.82,13747.7
30.88,14354.5
30.94,13505
31,12950.3
31.06,14129.1
31.12,14025.1
31.18,12828.9
31.24,12846.3
31.3,12742.2
31.36,12898.3
31.42,12690.2
31.48,13037
31.54,13713.1
31.6,13730.4
31.66,12759.6
31.72,13730.4
31.78,13990.5
31.84,14805.3
31.9,14129.1
31.96,15637.4
32.02,15620.1
32.08,14250.5
32.14,14319.8
32.2,13643.7
32.26,13383.7
32.32,13071.6
32.38,13418.4
32.44,12759.6
32.5,12360.8
32.56,13123.6
32.62,13106.3
32.68,12690.2
32.74,13193
32.8,13331.7
32.86,14285.2
32.92,14458.5
32.98,13851.8
33.04,14631.9
33.1,14631.9
33.16,16972.3
33.22,19468.7
33.28,21289.1
33.34,20508.9
33.4,21063.7
33.46,17509.7
33.52,15602.7
33.58,13747.7
33.64,12447.5
33.7,11840.7
33.76,12638.2
33.82,12464.9
33.88,12950.3
33.94,12672.9
34,12603.5
34.06,13869.1
34.12,13106.3
34.18,13435.7
34.24,12499.5
34.3,12828.9
34.36,12222.1
34.42,11702
34.48,11927.4
34.54,12464.9
34.6,11580.7
34.66,11996.8
34.72,12828.9
34.78,12707.6
34.84,13210.3
34.9,12100.8
34.96,12378.2
35.02,11546
35.08,11043.3
35.14,11338
35.2,11788.7
35.26,10835.2
35.32,11580.7
35.38,11511.3
35.44,11979.4
35.5,10869.9
35.56,11320.7
35.62,11719.4
35.68,11546
35.74,11494
35.8,11095.3
35.86,11476.7
35.92,11823.4
35.98,11008.6
36.04,12048.8
36.1,11182
36.16,11476.7
36.22,11996.8
36.28,11060.6
36.34,12187.5
36.4,12378.2
36.46,12256.8
36.52,12014.1
36.58,10991.3
36.64,10991.3
36.7,10505.8
36.76,10869.9
36.82,10835.2
36.88,11182
36.94,10939.3
37,11286
37.06,11494
37.12,12360.8
37.18,12412.8
37.24,11442
37.3,11355.3
37.36,10973.9
37.42,10384.5
37.48,10939.3
37.54,9864.39
37.6,10609.9
37.66,11216.6
37.72,11303.3
37.78,11112.6
37.84,11754.1
37.9,12447.5
37.96,12603.5
38.02,14944
38.08,16001.5
38.14,15533.4
38.2,15256
38.26,15412
38.32,14891.9
38.38,13921.1
38.44,12984.9
38.5,12343.5
38.56,11840.7
38.62,11216.6
38.68,9985.75
38.74,10523.2
38.8,11199.3
38.86,11216.6
38.92,9933.74
38.98,10072.4
39.04,9916.4
39.1,10072.4
39.16,10817.9
39.22,9517.67
39.28,9933.74
39.34,10211.1
39.4,11338
39.46,10037.8
39.52,9396.31
39.58,9933.74
39.64,9604.35
39.7,9344.3
39.76,10055.1
39.82,10245.8
39.88,9829.72
39.94,10107.1
40,9968.41
40.06,9396.31
40.12,10159.1
40.18,10384.5
40.24,9483
40.3,10055.1
40.36,9968.41
40.42,10124.4
40.48,9535
40.54,9899.07
40.6,9743.04
40.66,9968.41
40.72,10003.1
40.78,10107.1
40.84,10731.2
40.9,10731.2
40.96,10557.8
41.02,10800.6
41.08,10765.9
41.14,9448.32
41.2,9587.01
41.26,10072.4
41.32,9829.72
41.38,9760.38
41.44,10384.5
41.5,10453.8
41.56,10297.8
41.62,10505.8
41.68,9916.4
41.74,9500.33
41.8,10453.8
41.86,9413.65
41.92,10297.8
41.98,9812.39
42.04,9569.68
42.1,10436.5
42.16,9535
42.22,9691.03
42.28,10540.5
42.34,9985.75
42.4,10887.2
42.46,10453.8
42.52,9847.06
42.58,10072.4
42.64,9656.36
42.7,9812.39
42.76,9916.4
42.82,9430.99
42.88,10037.8
42.94,9396.31
43,9222.95
43.06,9621.69
43.12,10141.8
43.18,9881.73
43.24,9344.3
43.3,9725.7
43.36,9465.66
43.42,9430.99
43.48,8945.57
43.54,9257.62
43.6,8858.89
43.66,9240.29
43.72,8841.55
43.78,9170.94
43.84,9569.68
43.9,9812.39
43.96,10124.4
44.02,9881.73
44.08,8962.9
44.14,9396.31
44.2,9639.02
44.26,10315.1
44.32,10297.8
44.38,10055.1
44.44,10297.8
44.5,10401.8
44.56,9569.68
44.62,9309.63
44.68,8858.89
44.74,8754.87
44.8,9032.25
44.86,9396.31
44.92,8425.48
44.98,9153.6
45.04,8910.89
45.1,8876.22
45.16,9396.31
45.22,8373.47
45.28,8616.18
45.34,8772.2
45.4,8962.9
45.46,8633.51
45.52,8616.18
45.58,8668.19
45.64,7905.38
45.7,8390.8
45.76,8148.09
45.82,8945.57
45.88,7940.06
45.94,8234.78
46,9274.96
46.06,8356.13
46.12,7593.33
46.18,7940.06
46.24,7922.72
46.3,7974.73
46.36,8494.82
46.42,8373.47
46.48,8061.41
46.54,8789.54
46.6,8234.78
46.66,8252.11
46.72,9240.29
46.78,8824.21
46.84,9292.29
46.9,8338.79
46.96,8546.83
47.02,8702.86
47.08,7905.38
47.14,8529.49
47.2,8477.49
47.26,9101.59
47.32,8668.19
47.38,8754.87
47.44,8044.08
47.5,8858.89
47.56,8806.88
47.62,8009.4
47.68,8754.87
47.74,7905.38
47.8,8928.23
47.86,8234.78
47.92,8460.15
47.98,7922.72
48.04,9014.91
48.1,7784.03
48.16,8321.46
48.22,7628
48.28,9101.59
48.34,8356.13
48.4,8754.87
48.46,8858.89
48.52,8286.79
48.58,7575.99
48.64,8650.85
48.7,7159.92
48.76,8096.08
48.82,7073.24
48.88,7922.72
48.94,7818.7
49,7437.3
49.06,7992.07
49.12,7697.35
49.18,9430.99
49.24,9413.65
49.3,9170.94
49.36,10453.8
49.42,8754.87
49.48,9274.96
49.54,9829.72
49.6,9569.68
49.66,9517.67
49.72,9309.63
49.78,8668.19
49.84,8408.14
49.9,8910.89
49.96,8373.47
50.02,8304.12
50.08,8252.11
50.14,7870.71
50.2,8477.49
50.26,7853.38
50.32,7766.69
50.38,8009.4
50.44,7749.36
50.5,6917.21
50.56,6882.54
50.62,7558.66
50.68,7021.23
50.74,7419.97
50.8,7454.64
50.86,6795.86
50.92,6934.55
50.98,7125.25
51.04,7697.35
51.1,8148.09
51.16,7940.06
51.22,7801.37
51.28,7766.69
51.34,8061.41
51.4,7315.95
51.46,7471.98
51.52,8269.45
51.58,7107.91
51.64,7246.6
51.7,7107.91
51.76,7784.03
51.82,6969.22
51.88,7003.89
51.94,6483.8
52,7159.92
52.06,7003.89
52.12,6293.1
52.18,6483.8
52.24,6986.56
52.3,6674.5
52.36,6085.07
52.42,6466.47
52.48,6795.86
52.54,6206.42
52.6,6726.51
52.66,5634.32
52.72,6275.77
52.78,6483.8
52.84,5963.71
52.9,6813.19
52.96,6379.78
53.02,5929.04
53.08,6050.39
53.14,5773.01
53.2,6241.09
53.26,6813.19
53.32,6293.1
53.38,6414.46
53.44,6865.2
53.5,6657.17
53.56,6414.46
53.62,6102.4
53.68,6449.13
53.74,5894.37
53.8,6154.41
53.86,5998.38
53.92,5773.01
53.98,6171.75
54.04,6847.87
54.1,6795.86
54.16,6691.84
54.22,6137.08
54.28,6293.1
54.34,6085.07
54.4,6206.42
54.46,5807.68
54.52,5322.27
54.58,5651.66
54.64,5842.36
54.7,5408.95
54.76,5825.02
54.82,5842.36
54.88,5599.65
54.94,5998.38
55,5981.05
55.06,5391.61
55.12,5582.31
55.18,5790.35
55.24,5738.34
55.3,5530.3
55.36,6154.41
55.42,5599.65
55.48,5738.34
55.54,5304.93
55.6,5755.67
55.66,5270.26
55.72,5079.56
55.78,5616.98
55.84,5114.23
55.9,4802.17
55.96,5460.96
56.02,5235.58
56.08,5131.57
56.14,4680.82
56.2,5391.61
56.26,5651.66
56.32,5721
56.38,5686.33
56.44,5755.67
56.5,5408.95
56.56,6102.4
56.62,6587.82
56.68,5599.65
56.74,4802.17
56.8,5131.57
56.86,4784.84
56.92,4646.15
56.98,4871.52
57.04,4299.42
57.1,4646.15
57.16,4663.48
57.22,4420.77
57.28,4750.17
57.34,4576.8
57.4,4594.14
57.46,4750.17
57.52,4767.5
57.58,4836.85
57.64,4542.13
57.7,5044.88
57.76,4247.41
57.82,4906.19
57.88,4923.53
57.94,4732.83
58,4559.47
58.06,4732.83
58.12,4576.8
58.18,4472.78
58.24,4212.74
58.3,5062.22
58.36,4542.13
58.42,4420.77
58.48,4455.45
58.54,4368.77
58.6,4039.37
58.66,4299.42
58.72,4594.14
58.78,4802.17
58.84,4611.47
58.9,4455.45
58.96,4195.4
59.02,4438.11
59.08,4056.71
59.14,5010.21
59.2,4490.12
59.26,4750.17
59.32,4386.1
59.38,4299.42
59.44,4542.13
59.5,4958.2
59.56,4108.72
59.62,4663.48
59.68,4108.72
59.74,4698.16
59.8,4611.47
59.86,5391.61
59.92,4854.18
59.98,4230.07
60.04,4663.48
60.1,4126.06
60.16,4178.07
60.22,4316.76
60.28,4282.08
60.34,4594.14
60.4,4611.47
60.46,4351.43
60.52,4472.78
60.58,4438.11
60.64,4004.7
60.7,4108.72
60.76,4420.77
60.82,4143.39
60.88,4490.12
60.94,4074.05
61,4316.76
61.06,4108.72
61.12,4628.81
61.18,4611.47
61.24,4420.77
61.3,4472.78
61.36,4542.13
61.42,4316.76
61.48,4178.07
61.54,3918.02
61.6,4386.1
61.66,4178.07
61.72,4455.45
61.78,3848.67
61.84,3657.97
61.9,3848.67
61.96,4282.08
62.02,4022.04
62.08,3588.63
62.14,4663.48
62.2,4022.04
62.26,4299.42
62.32,4143.39
62.38,3779.33
62.44,4299.42
62.5,3883.35
62.56,3918.02
62.62,3779.33
62.68,4212.74
62.74,3779.33
62.8,3918.02
62.86,3588.63
62.92,3935.36
62.98,3831.34
63.04,4230.07
63.1,4108.72
63.16,3952.69
63.22,4022.04
63.28,3935.36
63.34,3588.63
63.4,4212.74
63.46,4212.74
63.52,3744.66
63.58,4074.05
63.64,3709.98
63.7,3363.26
63.76,4282.08
63.82,4074.05
63.88,4074.05
63.94,3814
64,3449.94
64.06,4178.07
64.12,4594.14
64.18,3779.33
64.24,4039.37
64.3,3484.61
64.36,3449.94
64.42,3866.01
64.48,3744.66
64.54,3918.02
64.6,4455.45
64.66,3918.02
64.72,4247.41
64.78,4299.42
64.84,4316.76
64.9,3952.69
64.96,4022.04
65.02,3553.96
65.08,3605.97
65.14,3657.97
65.2,3814
65.26,4230.07
65.32,4143.39
65.38,3900.68
65.44,3866.01
65.5,4264.75
65.56,3553.96
65.62,4108.72
65.68,3709.98
65.74,3605.97
65.8,3709.98
65.86,4559.47
65.92,4056.71
65.98,3761.99
66.04,3571.29
66.1,3709.98
66.16,3415.26
66.22,3796.67
66.28,4022.04
66.34,4039.37
66.4,4264.75
66.46,3727.32
66.52,3814
66.58,4264.75
66.64,3987.37
66.7,3831.34
66.76,3363.26
66.82,3814
66.88,3692.65
66.94,3883.35
67,3727.32
67.06,4126.06
67.12,3952.69
67.18,3935.36
67.24,3623.3
67.3,4039.37
67.36,3744.66
67.42,3675.31
67.48,3952.69
67.54,3536.62
67.6,4160.73
67.66,3571.29
67.72,3709.98
67.78,3536.62
67.84,3501.95
67.9,3432.6
67.96,3588.63
68.02,3866.01
68.08,3553.96
68.14,3467.27
68.2,3501.95
68.26,3571.29
68.32,3987.37
68.38,3692.65
68.44,3605.97
68.5,3519.28
68.56,3484.61
68.62,3987.37
68.68,3467.27
68.74,3709.98
68.8,3866.01
68.86,3640.64
68.92,3293.91
68.98,3449.94
69.04,3363.26
69.1,3363.26
69.16,3675.31
69.22,3501.95
69.28,3224.56
69.34,3467.27
69.4,3553.96
69.46,3224.56
69.52,3640.64
69.58,3657.97
69.64,2981.86
69.7,3519.28
69.76,3189.89
69.82,2964.52
69.88,3484.61
69.94,3293.91
70,3415.26
70.06,3709.98
70.12,3363.26
70.18,3397.93
70.24,3709.98
70.3,3571.29
70.36,3207.23
70.42,3085.87
70.48,3311.25
70.54,3432.6
70.6,3172.56
70.66,3085.87
70.72,3657.97
70.78,3519.28
70.84,3415.26
70.9,3605.97
70.96,3605.97
71.02,2947.18
71.08,3397.93
71.14,3293.91
71.2,3224.56
71.26,3137.88
71.32,3224.56
71.38,2669.8
71.44,3571.29
71.5,3259.24
71.56,3189.89
71.62,3397.93
71.68,3276.57
71.74,3155.22
71.8,3328.58
71.86,3189.89
71.92,3363.26
71.98,3380.59
72.04,3380.59
72.1,3397.93
72.16,3432.6
72.22,3397.93
72.28,3501.95
72.34,3380.59
72.4,3449.94
72.46,3363.26
72.52,3363.26
72.58,3467.27
72.64,3259.24
72.7,3415.26
72.76,3311.25
72.82,3380.59
72.88,3519.28
72.94,3276.57
73,3415.26
73.06,3241.9
73.12,3796.67
73.18,2929.85
73.24,3363.26
73.3,3761.99
73.36,3293.91
73.42,3345.92
73.48,3553.96
73.54,3675.31
73.6,3207.23
73.66,3501.95
73.72,3207.23
73.78,3588.63
73.84,3727.32
73.9,3224.56
73.96,3449.94
74.02,3657.97
74.08,3709.98
74.14,3744.66
74.2,3241.9
74.26,3744.66
74.32,3692.65
74.38,3467.27
74.44,3415.26
74.5,3623.3
74.56,3553.96
74.62,3189.89
74.68,3605.97
74.74,3692.65
74.8,3449.94
74.86,3814
74.92,3484.61
74.98,3571.29
75.04,3241.9
75.1,3467.27
75.16,3709.98
75.22,3866.01
75.28,3900.68
75.34,3883.35
75.4,3761.99
75.46,4039.37
75.52,4160.73
75.58,4004.7
75.64,4316.76
75.7,3987.37
75.76,3970.03
75.82,4490.12
75.88,4559.47
75.94,5062.22
76,7402.63
76.06,5807.68
76.12,5322.27
76.18,6778.52
76.24,6483.8
76.3,6899.88
76.36,7523.98
76.42,6483.8
76.48,6431.79
76.54,6934.55
76.6,5668.99
76.66,5010.21
76.72,4732.83
76.78,4819.51
76.84,3918.02
76.9,3900.68
76.96,4282.08
77.02,4472.78
77.08,4160.73
77.14,4178.07
77.2,3866.01
77.26,4264.75
77.32,4126.06
77.38,4212.74
77.44,4056.71
77.5,3935.36
77.56,3970.03
77.62,4056.71
77.68,4108.72
77.74,4750.17
77.8,4056.71
77.86,4264.75
77.92,3605.97
77.98,4074.05
78.04,4056.71
78.1,4074.05
78.16,4299.42
78.22,3657.97
78.28,4091.38
78.34,4316.76
78.4,4282.08
78.46,3935.36
78.52,4594.14
78.58,4230.07
78.64,4403.44
78.7,3952.69
78.76,4091.38
78.82,3761.99
78.88,3918.02
78.94,4178.07
79,4074.05
79.06,4680.82
79.12,4108.72
79.18,3814
79.24,3484.61
79.3,4282.08
79.36,3831.34
79.42,4108.72
79.48,4438.11
79.54,3970.03
79.6,3935.36
79.66,4074.05
79.72,3952.69
79.78,4316.76
79.84,3883.35
79.9,3952.69
79.96,3918.02
80.02,4247.41
80.08,4056.71
80.14,4004.7
80.2,4091.38
80.26,4299.42
80.32,4126.06
80.38,4056.71
80.44,3224.56
80.5,3779.33
80.56,3692.65
80.62,4195.4
80.68,3918.02
80.74,3241.9
80.8,3779.33
80.86,3640.64
80.92,3363.26
80.98,3675.31
81.04,3571.29
81.1,4143.39
81.16,4126.06
81.22,4195.4
81.28,3536.62
81.34,3814
81.4,3744.66
81.46,3814
81.52,3866.01
81.58,4074.05
81.64,4316.76
81.7,4108.72
81.76,3970.03
81.82,3970.03
81.88,4126.06
81.94,3900.68
82,3709.98
82.06,3467.27
82.12,4091.38
82.18,3918.02
82.24,4004.7
82.3,3831.34
82.36,3657.97
82.42,4351.43
82.48,3536.62
82.54,3779.33
82.6,3970.03
82.66,4126.06
82.72,3744.66
82.78,4230.07
82.84,4022.04
82.9,3484.61
82.96,4108.72
83.02,3709.98
83.08,4039.37
83.14,3831.34
83.2,4022.04
83.26,3709.98
83.32,3259.24
83.38,3866.01
83.44,3709.98
83.5,3727.32
83.56,3397.93
83.62,3397.93
83.68,3744.66
83.74,3397.93
83.8,3831.34
83.86,3952.69
83.92,3848.67
83.98,4022.04
84.04,3519.28
84.1,3848.67
84.16,4022.04
84.22,3761.99
84.28,3449.94
84.34,3866.01
84.4,3761.99
84.46,3831.34
84.52,3970.03
84.58,4004.7
84.64,3103.21
84.7,4299.42
84.76,3761.99
84.82,3397.93
84.88,3779.33
84.94,3727.32
85,3605.97
85.06,3727.32
85.12,3692.65
85.18,3866.01
85.24,3571.29
85.3,3623.3
85.36,4039.37
85.42,3449.94
85.48,3536.62
85.54,3241.9
85.6,3363.26
85.66,3623.3
85.72,3172.56
85.78,3311.25
85.84,3432.6
85.9,3536.62
85.96,3259.24
86.02,3640.64
86.08,3640.64
86.14,3311.25
86.2,3883.35
86.26,3224.56
86.32,3536.62
86.38,3259.24
86.44,3345.92
86.5,3311.25
86.56,3727.32
86.62,3605.97
86.68,3640.64
86.74,3259.24
86.8,3484.61
86.86,3709.98
86.92,3276.57
86.98,3588.63
87.04,3432.6
87.1,3571.29
87.16,3484.61
87.22,3536.62
87.28,3189.89
87.34,3814
87.4,3085.87
87.46,3415.26
87.52,3519.28
87.58,3675.31
87.64,3085.87
87.7,3363.26
87.76,3293.91
87.82,2999.19
87.88,3397.93
87.94,3328.58
88,3380.59
88.06,3519.28
88.12,3657.97
88.18,3657.97
88.24,3432.6
88.3,3657.97
88.36,3328.58
88.42,2964.52
88.48,3207.23
88.54,3224.56
88.6,3467.27
88.66,3397.93
88.72,3553.96
88.78,3155.22
88.84,3449.94
88.9,3328.58
88.96,3224.56
89.02,3224.56
89.08,3328.58
89.14,3328.58
89.2,3345.92
89.26,3207.23
89.32,3380.59
89.38,3068.54
89.44,3189.89
89.5,3276.57
89.56,3259.24
89.62,2825.83
89.68,3259.24
89.74,3363.26
89.8,3692.65
89.86,3727.32
89.92,3866.01
89.98,6206.42
90,6379.78