File: database/experiments/MU/xrd/1102/intensive/1029/xrd.TXT
Sample
Comments
Filename	C:\Data\西出研\梅木\20211102オペ\ベッセル\LiFTFSI20wt_2θ_θ.raw
Goniometer	SmartLab(In-plane)
Attachment	Zステージ単独
Monochromater	None
X	0
Y	0
Z	0.03946
ScanningMode	2Theta/Theta
ScanningType	Continuos Scanning
X-Ray	40kV/30mA
入射スリット	2/3deg
受光スリット1	20.000mm
受光スリット2	20.000mm
Cu_K-beta
Start	5
Stop	60
Step	0.02
Speed	21.6746
Offset	0
5	52398.3
5.04	47864.7
5.08	45787.5
5.12	45715.3
5.16	43295
5.2	40603.7
5.24	39249
5.28	37876.3
5.32	35510.2
5.36	33685.9
5.4	33631.7
5.44	31825.5
5.48	30814
5.52	30434.7
5.56	30669.5
5.6	29603.9
5.64	29549.7
5.68	29947
5.72	29748.4
5.76	28195
5.8	28827.2
5.84	28700.8
5.88	27869.9
5.92	28050.5
5.96	27400.3
6	26876.5
6.04	28827.2
6.08	27815.7
6.12	27635.1
6.16	27869.9
6.2	27833.8
6.24	27328
6.28	27580.9
6.32	26876.5
6.36	26623.6
6.4	27906
6.44	27833.8
6.48	27328
6.52	25557.9
6.56	26677.8
6.6	28411.8
6.64	28321.4
6.68	28863.3
6.72	27454.5
6.76	27039
6.8	26497.2
6.84	27544.8
6.88	27653.1
6.92	27346.1
6.96	26804.2
7	27255.8
7.04	26894.5
7.08	27454.5
7.12	26226.2
7.16	27653.1
7.2	27183.5
7.24	25521.8
7.28	26713.9
7.32	25973.4
7.36	26406.9
7.4	27075.2
7.44	27039
7.48	25232.8
7.52	26190.1
7.56	26424.9
7.6	26117.9
7.64	26099.8
7.68	26443
7.72	27382.2
7.76	26370.7
7.8	26045.6
7.84	25973.4
7.88	26298.5
7.92	26370.7
7.96	25395.4
8	26479.1
8.04	26172.1
8.08	26081.7
8.12	25684.4
8.16	24636.8
8.2	25865
8.24	25955.3
8.28	27472.5
8.32	27364.2
8.36	25323.1
8.4	25449.6
8.44	25828.9
8.48	27002.9
8.52	27490.6
8.56	26713.9
8.6	27111.3
8.64	26154
8.68	27562.8
8.72	26695.9
8.76	27111.3
8.8	27978.3
8.84	27002.9
8.88	26370.7
8.92	25268.9
8.96	25016.1
9	24691
9.04	26587.5
9.08	26822.3
9.12	24943.8
9.16	25702.4
9.2	26515.2
9.24	25612.1
9.28	25341.2
9.32	25539.9
9.36	25738.6
9.4	26551.4
9.44	26172.1
9.48	24438.1
9.52	26009.5
9.56	25305.1
9.6	24763.2
9.64	25539.9
9.68	25774.7
9.72	25557.9
9.76	25901.1
9.8	25792.7
9.84	25214.8
9.88	26154
9.92	24943.8
9.96	24853.5
10	26226.2
10.04	24221.3
10.08	25684.4
10.12	25268.9
10.16	25684.4
10.2	25196.7
10.24	24329.7
10.28	26226.2
10.32	24239.4
10.36	26298.5
10.4	25106.4
10.44	25648.2
10.48	25865
10.52	25305.1
10.56	25088.3
10.6	24329.7
10.64	25955.3
10.68	23444.7
10.72	25846.9
10.76	26063.7
10.8	25323.1
10.84	25883.1
10.88	25214.8
10.92	25413.4
10.96	25865
11	25594.1
11.04	24347.8
11.08	25684.4
11.12	24383.9
11.16	25720.5
11.2	25828.9
11.24	25630.2
11.28	23878.2
11.32	26894.5
11.36	25720.5
11.4	24943.8
11.44	26226.2
11.48	25594.1
11.52	25666.3
11.56	25359.3
11.6	25991.4
11.64	26009.5
11.68	25449.6
11.72	27237.7
11.76	26154
11.8	26208.2
11.84	25883.1
11.88	26605.5
11.92	26262.4
11.96	24998
12	25377.3
12.04	25503.8
12.08	24998
12.12	25377.3
12.16	25485.7
12.2	25250.9
12.24	25937.2
12.28	25268.9
12.32	25955.3
12.36	25196.7
12.4	25901.1
12.44	25539.9
12.48	25503.8
12.52	26081.7
12.56	25268.9
12.6	24691
12.64	25666.3
12.68	27382.2
12.72	25449.6
12.76	25287
12.8	25648.2
12.84	26370.7
12.88	26641.7
12.92	26135.9
12.96	27093.2
13	25846.9
13.04	26226.2
13.08	25702.4
13.12	25810.8
13.16	25232.8
13.2	23986.5
13.24	26515.2
13.28	25846.9
13.32	25991.4
13.36	24835.5
13.4	25865
13.44	27472.5
13.48	25196.7
13.52	27093.2
13.56	25557.9
13.6	26244.3
13.64	26370.7
13.68	26027.6
13.72	26117.9
13.76	25810.8
13.8	26244.3
13.84	25287
13.88	26424.9
13.92	25666.3
13.96	26135.9
14	25937.2
14.04	25846.9
14.08	25919.2
14.12	25883.1
14.16	25323.1
14.2	25630.2
14.24	25901.1
14.28	25016.1
14.32	26262.4
14.36	26244.3
14.4	26370.7
14.44	24221.3
14.48	24925.8
14.52	26262.4
14.56	26154
14.6	25341.2
14.64	25485.7
14.68	25232.8
14.72	25630.2
14.76	24979.9
14.8	25160.6
14.84	25305.1
14.88	25521.8
14.92	25287
14.96	24781.3
15	26063.7
15.04	25467.6
15.08	24672.9
15.12	25774.7
15.16	24817.4
15.2	25395.4
15.24	26406.9
15.28	24275.5
15.32	26244.3
15.36	25720.5
15.4	24998
15.44	23444.7
15.48	24257.5
15.52	26641.7
15.56	25377.3
15.6	25323.1
15.64	25756.6
15.68	25846.9
15.72	25377.3
15.76	24961.9
15.8	24311.7
15.84	25214.8
15.88	24058.8
15.92	25467.6
15.96	25576
16	25449.6
16.04	25160.6
16.08	25431.5
16.12	25016.1
16.16	25630.2
16.2	24094.9
16.24	25684.4
16.28	25124.4
16.32	23535
16.36	24745.1
16.4	24058.8
16.44	25016.1
16.48	25088.3
16.52	25648.2
16.56	23733.7
16.6	24058.8
16.64	24492.3
16.68	24257.5
16.72	24600.6
16.76	24347.8
16.8	25196.7
16.84	24402
16.88	24167.2
16.92	25160.6
16.96	24131
17	24672.9
17.04	25576
17.08	25684.4
17.12	24691
17.16	26154
17.2	25431.5
17.24	25937.2
17.28	25810.8
17.32	25485.7
17.36	25377.3
17.4	24961.9
17.44	25774.7
17.48	25268.9
17.52	24654.8
17.56	26858.4
17.6	25810.8
17.64	24239.4
17.68	24510.3
17.72	24709
17.76	24167.2
17.8	23896.2
17.84	25034.1
17.88	24221.3
17.92	23535
17.96	23372.4
18	24040.7
18.04	24131
18.08	24275.5
18.12	24907.7
18.16	24672.9
18.2	26280.4
18.24	25648.2
18.28	25431.5
18.32	23950.4
18.36	24745.1
18.4	25883.1
18.44	25305.1
18.48	24636.8
18.52	26262.4
18.56	25666.3
18.6	26822.3
18.64	26262.4
18.68	28574.3
18.72	28520.1
18.76	30886.3
18.8	28086.6
18.84	28502.1
18.88	27978.3
18.92	27075.2
18.96	25973.4
19	24076.8
19.04	25431.5
19.08	24022.7
19.12	25160.6
19.16	24979.9
19.2	25467.6
19.24	26948.7
19.28	26840.3
19.32	27057.1
19.36	26190.1
19.4	26786.2
19.44	26027.6
19.48	24492.3
19.52	24763.2
19.56	24022.7
19.6	23787.8
19.64	22631.9
19.68	23246
19.72	21999.7
19.76	23824
19.8	23083.4
19.84	22487.4
19.88	22920.9
19.92	21728.8
19.96	21674.6
20	22649.9
20.04	22884.7
20.08	21981.6
20.12	21475.9
20.16	22397.1
20.2	21945.5
20.24	22108.1
20.28	21114.7
20.32	21439.8
20.36	21873.3
20.4	21999.7
20.44	21566.2
20.48	21566.2
20.52	21855.2
20.56	20988.2
20.6	21530.1
20.64	21819.1
20.68	19633.6
20.72	21259.1
20.76	21710.7
20.8	20681.2
20.84	20410.2
20.88	20825.7
20.92	21132.7
20.96	20717.3
21	20897.9
21.04	19778.1
21.08	20374.1
21.12	19832.2
21.16	21457.8
21.2	20067
21.24	20410.2
21.28	20067
21.32	19814.2
21.36	20843.7
21.4	20843.7
21.44	21981.6
21.48	19705.8
21.52	21241.1
21.56	21801
21.6	21620.4
21.64	21638.5
21.68	21566.2
21.72	20699.2
21.76	21186.9
21.8	19958.7
21.84	19705.8
21.88	20825.7
21.92	20012.9
21.96	20934
22	21114.7
22.04	20211.5
22.08	19471
22.12	19850.3
22.16	20608.9
22.2	20663.1
22.24	20193.5
22.28	20554.7
22.32	20500.5
22.36	20374.1
22.4	20825.7
22.44	20843.7
22.48	20861.8
22.52	21223
22.56	21295.3
22.6	20482.5
22.64	22324.8
22.68	20500.5
22.72	20012.9
22.76	20789.5
22.8	21530.1
22.84	19922.5
22.88	19687.7
22.92	19579.4
22.96	19236.2
23	19561.3
23.04	20916
23.08	19760
23.12	20247.7
23.16	19543.2
23.2	19904.5
23.24	20175.4
23.28	19127.8
23.32	19669.7
23.36	20464.4
23.4	19958.7
23.44	20103.2
23.48	19272.3
23.52	19850.3
23.56	19832.2
23.6	19380.7
23.64	19398.7
23.68	19525.2
23.72	19037.5
23.76	20265.7
23.8	19037.5
23.84	19398.7
23.88	18911.1
23.92	18513.7
23.96	19055.6
24	19651.6
24.04	20518.6
24.08	20681.2
24.12	19109.8
24.16	18983.3
24.2	18730.4
24.24	18640.1
24.28	18838.8
24.32	19669.7
24.36	18838.8
24.4	19326.5
24.44	18315
24.48	18820.8
24.52	18080.2
24.56	17719
24.6	17953.8
24.64	18513.7
24.68	17989.9
24.72	18152.5
24.76	17899.6
24.8	17321.6
24.84	17610.6
24.88	17773.2
24.92	18260.8
24.96	17737
25	17646.7
25.04	18567.9
25.08	18477.6
25.12	18351.1
25.16	18477.6
25.2	17285.5
25.24	18062.1
25.28	19290.4
25.32	18874.9
25.36	17466.1
25.4	18766.6
25.44	18622.1
25.48	18567.9
25.52	19489.1
25.56	18477.6
25.6	18459.5
25.64	19651.6
25.68	18423.4
25.72	18874.9
25.76	18856.9
25.8	19308.4
25.84	20283.8
25.88	19651.6
25.92	20067
25.96	20518.6
26	20247.7
26.04	20229.6
26.08	20356
26.12	20247.7
26.16	18676.3
26.2	19416.8
26.24	19182
26.28	18893
26.32	17231.3
26.36	17863.5
26.4	16544.9
26.44	18585.9
26.48	17141
26.52	17122.9
26.56	17899.6
26.6	17664.8
26.64	16382.4
26.68	16960.4
26.72	17195.2
26.76	15298.6
26.8	16906.2
26.84	16039.2
26.88	16147.6
26.92	15443.1
26.96	16075.3
27	16833.9
27.04	15443.1
27.08	14738.7
27.12	15750.2
27.16	15786.3
27.2	16237.9
27.24	16183.7
27.28	15262.5
27.32	15677.9
27.36	15352.8
27.4	14522
27.44	15551.5
27.48	14467.8
27.52	16093.4
27.56	15118
27.6	15533.4
27.64	15966.9
27.68	15154.1
27.72	14847.1
27.76	15009.6
27.8	14467.8
27.84	14648.4
27.88	14612.3
27.92	14485.8
27.96	14251
28	14287.2
28.04	15334.8
28.08	14233
28.12	15388.9
28.16	15100
28.2	14124.6
28.24	14774.8
28.28	15298.6
28.32	14955.5
28.36	14991.6
28.4	15515.4
28.44	14774.8
28.48	14865.1
28.52	15298.6
28.56	14684.5
28.6	15768.3
28.64	16183.7
28.68	17068.7
28.72	16382.4
28.76	17773.2
28.8	16942.3
28.84	17122.9
28.88	16418.5
28.92	16635.2
28.96	16563
29	16653.3
29.04	16508.8
29.08	14449.7
29.12	14377.5
29.16	15100
29.2	14540
29.24	13763.4
29.28	13600.8
29.32	14034.3
29.36	13980.1
29.4	14413.6
29.44	14251
29.48	14160.7
29.52	13564.7
29.56	13077
29.6	13275.7
29.64	13239.6
29.68	13871.7
29.72	13474.4
29.76	13366
29.8	14052.4
29.84	13528.5
29.88	12878.3
29.92	13185.4
29.96	13618.9
30	13745.3
30.04	13149.2
30.08	13329.9
30.12	13077
30.16	12372.6
30.2	13835.6
30.24	12860.2
30.28	12444.8
30.32	12643.5
30.36	13022.8
30.4	12607.4
30.44	13817.5
30.48	12535.1
30.52	13853.7
30.56	12932.5
30.6	12715.8
30.64	12643.5
30.68	13040.9
30.72	13275.7
30.76	13167.3
30.8	11921
30.84	13095.1
30.88	12986.7
30.92	12228.1
30.96	12029.4
31	12101.6
31.04	13149.2
31.08	11614
31.12	12101.6
31.16	13040.9
31.2	12246.1
31.24	13275.7
31.28	12607.4
31.32	12769.9
31.36	13058.9
31.4	12426.8
31.44	12968.6
31.48	12083.6
31.52	12137.8
31.56	11957.1
31.6	12210
31.64	12282.3
31.68	11993.3
31.72	12769.9
31.76	12480.9
31.8	12011.3
31.84	12282.3
31.88	12065.5
31.92	13366
31.96	12426.8
32	12119.7
32.04	11993.3
32.08	10963.7
32.12	12047.5
32.16	12083.6
32.2	11144.3
32.24	11758.5
32.28	12173.9
32.32	12191.9
32.36	12065.5
32.4	12011.3
32.44	11668.1
32.48	11939.1
32.52	11144.3
32.56	12173.9
32.6	11632
32.64	11595.9
32.68	11939.1
32.72	12065.5
32.76	12372.6
32.8	12210
32.84	11939.1
32.88	11469.5
32.92	11668.1
32.96	11939.1
33	11577.8
33.04	11704.3
33.08	11234.7
33.12	11379.2
33.16	11541.7
33.2	11054
33.24	11577.8
33.28	12318.4
33.32	12047.5
33.36	12011.3
33.4	11957.1
33.44	11541.7
33.48	11541.7
33.52	11559.8
33.56	10873.4
33.6	12065.5
33.64	10837.3
33.68	10963.7
33.72	10801.2
33.76	11650.1
33.8	11198.5
33.84	11126.3
33.88	11017.9
33.92	11541.7
33.96	11722.3
34	11776.5
34.04	11559.8
34.08	10855.4
34.12	11559.8
34.16	11036
34.2	10855.4
34.24	10403.8
34.28	11144.3
34.32	10494.1
34.36	10765
34.4	11090.2
34.44	11921
34.48	11252.7
34.52	10241.2
34.56	11433.3
34.6	11198.5
34.64	11722.3
34.68	11614
34.72	10909.5
34.76	10692.8
34.8	10891.5
34.84	11017.9
34.88	11523.6
34.92	10548.3
34.96	11451.4
35	11072.1
35.04	10819.2
35.08	10945.7
35.12	10349.6
35.16	10277.4
35.2	10710.9
35.24	10295.4
35.28	11722.3
35.32	10674.7
35.36	10548.3
35.4	10295.4
35.44	10638.6
35.48	10728.9
35.52	11054
35.56	11541.7
35.6	10909.5
35.64	11794.6
35.68	11595.9
35.72	11614
35.76	11054
35.8	10963.7
35.84	11180.5
35.88	11361.1
35.92	11036
35.96	10855.4
36	11252.7
36.04	10349.6
36.08	10710.9
36.12	10169
36.16	10674.7
36.2	10945.7
36.24	10855.4
36.28	10223.2
36.32	10277.4
36.36	11812.6
36.4	10945.7
36.44	11650.1
36.48	11523.6
36.52	11884.9
36.56	11090.2
36.6	10945.7
36.64	11957.1
36.68	11108.2
36.72	11505.6
36.76	10819.2
36.8	11054
36.84	10187.1
36.88	10421.9
36.92	10620.5
36.96	10765
37	10494.1
37.04	10909.5
37.08	10458
37.12	11036
37.16	10439.9
37.2	9428.44
37.24	10620.5
37.28	10458
37.32	10006.4
37.36	10150.9
37.4	10169
37.44	9446.5
37.48	9934.18
37.52	9988.37
37.56	10349.6
37.6	10385.7
37.64	9374.25
37.68	10096.7
37.72	10331.5
37.76	9139.45
37.8	9265.88
37.84	9356.19
37.88	9103.32
37.92	9717.43
37.96	9356.19
38	9789.68
38.04	9735.5
38.08	10078.7
38.12	9988.37
38.16	9446.5
38.2	9717.43
38.24	10187.1
38.28	9717.43
38.32	10313.5
38.36	9446.5
38.4	9789.68
38.44	9879.99
38.48	10277.4
38.52	8886.58
38.56	9175.57
38.6	9789.68
38.64	9193.63
38.68	10132.9
38.72	8940.76
38.76	9591
38.8	9627.12
38.84	9753.56
38.88	9157.51
38.92	9861.93
38.96	9067.2
39	10277.4
39.04	9013.01
39.08	9085.26
39.12	9518.75
39.16	9717.43
39.2	9338.13
39.24	9464.57
39.28	9356.19
39.32	9627.12
39.36	10187.1
39.4	9283.94
39.44	9175.57
39.48	9049.14
39.52	8850.45
39.56	9247.82
39.6	9157.51
39.64	9789.68
39.68	9428.44
39.72	9013.01
39.76	9193.63
39.8	9157.51
39.84	9591
39.88	8940.76
39.92	8958.83
39.96	9175.57
40	8543.4
40.04	9536.81
40.08	9356.19
40.12	9013.01
40.16	9175.57
40.2	8290.53
40.24	8940.76
40.28	9229.76
40.32	8886.58
40.36	9428.44
40.4	9518.75
40.44	9464.57
40.48	8651.77
40.52	9121.38
40.56	9645.19
40.6	8994.95
40.64	9265.88
40.68	9139.45
40.72	8615.64
40.76	9356.19
40.8	9049.14
40.84	9229.76
40.88	9627.12
40.92	9952.24
40.96	9446.5
41	9175.57
41.04	9410.38
41.08	9572.94
41.12	9067.2
41.16	9067.2
41.2	9518.75
41.24	8615.64
41.28	8958.83
41.32	8904.64
41.36	8994.95
41.4	8687.89
41.44	9500.69
41.48	9049.14
41.52	8633.71
41.56	9717.43
41.6	8868.51
41.64	8958.83
41.68	9374.25
41.72	9356.19
41.76	9302.01
41.8	8904.64
41.84	8922.7
41.88	9410.38
41.92	9320.07
41.96	9410.38
42	9121.38
42.04	9753.56
42.08	9446.5
42.12	9338.13
42.16	9879.99
42.2	8994.95
42.24	9265.88
42.28	9482.63
42.32	9121.38
42.36	8435.02
42.4	8416.96
42.44	9410.38
42.48	8525.33
42.52	9265.88
42.56	9518.75
42.6	9085.26
42.64	8850.45
42.68	8561.46
42.72	8471.15
42.76	8669.83
42.8	8471.15
42.84	8922.7
42.88	9283.94
42.92	8850.45
42.96	8814.33
43	7929.28
43.04	8362.77
43.08	8615.64
43.12	9392.32
43.16	8435.02
43.2	8398.9
43.24	8453.08
43.28	8290.53
43.32	8760.14
43.36	8742.08
43.4	8633.71
43.44	8886.58
43.48	8579.52
43.52	8489.21
43.56	8922.7
43.6	8687.89
43.64	8037.66
43.68	8416.96
43.72	8001.53
43.76	8380.84
43.8	8435.02
43.84	8073.78
43.88	8200.21
43.92	8091.84
43.96	8109.9
44	8164.09
44.04	7712.54
44.08	8146.03
44.12	8398.9
44.16	8362.77
44.2	8778.2
44.24	8868.51
44.28	8507.27
44.32	7531.92
44.36	8597.58
44.4	8073.78
44.44	8868.51
44.48	8164.09
44.52	8091.84
44.56	8236.34
44.6	8832.39
44.64	8308.59
44.68	8940.76
44.72	8453.08
44.76	8651.77
44.8	7857.03
44.84	8868.51
44.88	8669.83
44.92	8001.53
44.96	6682.99
45	7983.47
45.04	8127.97
45.08	7549.98
45.12	8290.53
45.16	8073.78
45.2	8001.53
45.24	8055.72
45.28	8001.53
45.32	8200.21
45.36	7441.6
45.4	8037.66
45.44	7838.97
45.48	8182.15
45.52	7513.85
45.56	8055.72
45.6	8164.09
45.64	8362.77
45.68	8146.03
45.72	7423.54
45.76	8218.28
45.8	7875.1
45.84	8109.9
45.88	7206.8
45.92	7766.72
45.96	8308.59
46	8435.02
46.04	8272.46
46.08	6809.43
46.12	7604.16
46.16	7513.85
46.2	7387.42
46.24	7857.03
46.28	7152.61
46.32	7640.29
46.36	7838.97
46.4	7857.03
46.44	8308.59
46.48	8037.66
46.52	7640.29
46.56	7423.54
46.6	7188.73
46.64	7477.73
46.68	8435.02
46.72	7676.41
46.76	6899.74
46.8	8146.03
46.84	7369.36
46.88	7712.54
46.92	7062.3
46.96	7279.05
47	7459.67
47.04	6881.68
47.08	7784.79
47.12	7694.47
47.16	7242.92
47.2	7297.11
47.24	8290.53
47.28	7838.97
47.32	7369.36
47.36	7802.85
47.4	7929.28
47.44	8037.66
47.48	8380.84
47.52	7206.8
47.56	8272.46
47.6	8705.96
47.64	7929.28
47.68	8001.53
47.72	8164.09
47.76	7513.85
47.8	8344.71
47.84	7495.79
47.88	7911.22
47.92	7893.16
47.96	8326.65
48	7622.23
48.04	7242.92
48.08	7694.47
48.12	7802.85
48.16	7983.47
48.2	7351.29
48.24	7134.55
48.28	7820.91
48.32	7333.23
48.36	7604.16
48.4	7152.61
48.44	6845.55
48.48	7568.04
48.52	7333.23
48.56	6863.62
48.6	7098.42
48.64	6646.87
48.68	6357.88
48.72	6646.87
48.76	6827.49
48.8	6845.55
48.84	7279.05
48.88	6755.24
48.92	6971.99
48.96	6791.37
49	7080.36
49.04	7351.29
49.08	7477.73
49.12	7549.98
49.16	8561.46
49.2	8416.96
49.24	9265.88
49.28	9247.82
49.32	9374.25
49.36	10205.1
49.4	9392.32
49.44	9067.2
49.48	9103.32
49.52	10385.7
49.56	10837.3
49.6	8507.27
49.64	8814.33
49.68	9085.26
49.72	8525.33
49.76	7857.03
49.8	7604.16
49.84	7802.85
49.88	7965.41
49.92	7441.6
49.96	7586.1
50	7369.36
50.04	8182.15
50.08	7315.17
50.12	8037.66
50.16	7315.17
50.2	7026.18
50.24	7405.48
50.28	6394
50.32	6881.68
50.36	7116.49
50.4	6592.68
50.44	6737.18
50.48	6899.74
50.52	6032.76
50.56	6755.24
50.6	6646.87
50.64	6357.88
50.68	6701.06
50.72	6610.75
50.76	6881.68
50.8	5960.51
50.84	6719.12
50.88	7206.8
50.92	6267.56
50.96	6664.93
51	6484.31
51.04	7098.42
51.08	7549.98
51.12	6809.43
51.16	7279.05
51.2	6412.06
51.24	7333.23
51.28	6682.99
51.32	6682.99
51.36	6773.31
51.4	6249.5
51.44	6610.75
51.48	7026.18
51.52	7026.18
51.56	7477.73
51.6	6755.24
51.64	7206.8
51.68	5942.45
51.72	6520.44
51.76	6971.99
51.8	6177.25
51.84	6610.75
51.88	6628.81
51.92	6520.44
51.96	5942.45
52	6032.76
52.04	6032.76
52.08	6213.38
52.12	6646.87
52.16	5942.45
52.2	6285.63
52.24	5906.32
52.28	6267.56
52.32	6123.07
52.36	6267.56
52.4	5779.89
52.44	6592.68
52.48	5527.02
52.52	6177.25
52.56	6159.19
52.6	6123.07
52.64	5960.51
52.68	5870.2
52.72	6050.82
52.76	5689.58
52.8	6303.69
52.84	6177.25
52.88	5545.08
52.92	6375.94
52.96	5545.08
53	5870.2
53.04	5852.14
53.08	6375.94
53.12	6159.19
53.16	5779.89
53.2	6032.76
53.24	6538.5
53.28	5761.82
53.32	5689.58
53.36	6231.44
53.4	5563.14
53.44	7134.55
53.48	5689.58
53.52	5635.39
53.56	5490.89
53.6	5508.95
53.64	5888.26
53.68	5671.51
53.72	5328.33
53.76	5382.52
53.8	5292.21
53.84	5671.51
53.88	5725.7
53.92	5364.46
53.96	5581.2
54	5472.83
54.04	5364.46
54.08	5779.89
54.12	5111.59
54.16	5147.71
54.2	5671.51
54.24	5418.64
54.28	5617.33
54.32	6032.76
54.36	5093.53
54.4	4804.53
54.44	5219.96
54.48	5508.95
54.52	5563.14
54.56	5057.4
54.6	5454.77
54.64	5274.15
54.68	5183.84
54.72	4876.78
54.76	5436.71
54.8	5075.46
54.84	5400.58
54.88	4822.59
54.92	5545.08
54.96	4714.22
55	4804.53
55.04	4786.47
55.08	5129.65
55.12	5147.71
55.16	5003.21
55.2	5725.7
55.24	4768.41
55.28	4949.03
55.32	5274.15
55.36	5364.46
55.4	4605.85
55.44	5201.9
55.48	4533.6
55.52	4678.1
55.56	5256.08
55.6	5147.71
55.64	4623.91
55.68	4786.47
55.72	4623.91
55.76	4515.54
55.8	4678.1
55.84	4660.03
55.88	4768.41
55.92	4894.84
55.96	5111.59
56	5039.34
56.04	4280.73
56.08	5201.9
56.12	4894.84
56.16	4930.97
56.2	5364.46
56.24	5454.77
56.28	4804.53
56.32	5292.21
56.36	5003.21
56.4	5147.71
56.44	4930.97
56.48	4551.66
56.52	4949.03
56.56	5852.14
56.6	5743.76
56.64	4894.84
56.68	4732.28
56.72	4389.1
56.76	4262.67
56.8	4750.34
56.84	4425.23
56.88	4407.16
56.92	4334.92
56.96	4407.16
57	4587.79
57.04	4479.41
57.08	4172.36
57.12	4840.66
57.16	4587.79
57.2	4696.16
57.24	4425.23
57.28	3847.24
57.32	4461.35
57.36	4660.03
57.4	4551.66
57.44	4623.91
57.48	4641.97
57.52	3919.49
57.56	4678.1
57.6	4190.42
57.64	4316.85
57.68	4533.6
57.72	4352.98
57.76	4280.73
57.8	4623.91
57.84	4443.29
57.88	4425.23
57.92	4605.85
57.96	4461.35
58	4352.98
58.04	4497.47
58.08	4226.54
58.12	3756.93
58.16	4045.92
58.2	4497.47
58.24	4407.16
58.28	4352.98
58.32	4696.16
58.36	3774.99
58.4	4298.79
58.44	3919.49
58.48	4641.97
58.52	4045.92
58.56	4045.92
58.6	4063.98
58.64	3919.49
58.68	3793.05
58.72	4533.6
58.76	4027.86
58.8	4389.1
58.84	3829.18
58.88	4334.92
58.92	4479.41
58.96	3937.55
59	4551.66
59.04	3829.18
59.08	4262.67
59.12	4009.8
59.16	4244.6
59.2	3323.44
59.24	3811.11
59.28	4678.1
59.32	4027.86
59.36	4244.6
59.4	3576.31
59.44	3829.18
59.48	3829.18
59.52	3919.49
59.56	4082.05
59.6	4316.85
59.64	4009.8
59.68	3919.49
59.72	3594.37
59.76	3756.93
59.8	3991.73
59.84	3793.05
59.88	4100.11
59.92	4280.73
59.96	3811.11
60	4298.79