File: database/experiments/MU/xrd/1102/parallel/1101/xrd/120.TXT
Sample
Comments
Filename	C:\Data\西出研\梅木\20211102オペ\LiTFSI24wt_05_0005_0119-1_C_2θ.raw
Goniometer	SmartLab(In-plane)
Attachment	標準Zステージ
Monochromater	None
X	0
Y	0
Z	0.01756
ScanningMode	2Theta
ScanningType	Continuos Scanning
X-Ray	40kV/30mA
入射スリット	0.300mm
受光スリット1	20.000mm
受光スリット2	20.000mm
None
Start	5
Stop	60
Step	0.02
Speed	21.6746
Theta	0
5	8037.66
5.04	6303.69
5.08	7134.55
5.12	7098.42
5.16	6303.69
5.2	6827.49
5.24	7044.24
5.28	6917.8
5.32	7008.11
5.36	6971.99
5.4	6628.81
5.44	6177.25
5.48	6917.8
5.52	7351.29
5.56	6863.62
5.6	5942.45
5.64	6701.06
5.68	5671.51
5.72	6339.81
5.76	7260.98
5.8	6791.37
5.84	6881.68
5.88	5870.2
5.92	6249.5
5.96	6448.19
6	6646.87
6.04	6773.31
6.08	6791.37
6.12	6682.99
6.16	6646.87
6.2	6339.81
6.24	6177.25
6.28	5996.63
6.32	6773.31
6.36	6394
6.4	6141.13
6.44	6050.82
6.48	6303.69
6.52	5797.95
6.56	5996.63
6.6	5960.51
6.64	5707.64
6.68	5870.2
6.72	6123.07
6.76	6123.07
6.8	6339.81
6.84	6285.63
6.88	6195.32
6.92	5978.57
6.96	6267.56
7	6086.94
7.04	5761.82
7.08	5545.08
7.12	5563.14
7.16	5725.7
7.2	5671.51
7.24	5996.63
7.28	5508.95
7.32	6050.82
7.36	5743.76
7.4	6321.75
7.44	6050.82
7.48	5689.58
7.52	6701.06
7.56	5725.7
7.6	5725.7
7.64	5761.82
7.68	5779.89
7.72	6267.56
7.76	6086.94
7.8	5653.45
7.84	5346.4
7.88	5454.77
7.92	5364.46
7.96	6105.01
8	5599.27
8.04	5924.38
8.08	5942.45
8.12	5201.9
8.16	5797.95
8.2	5563.14
8.24	5797.95
8.28	6123.07
8.32	6105.01
8.36	5689.58
8.4	5256.08
8.44	5563.14
8.48	5292.21
8.52	5635.39
8.56	5707.64
8.6	5364.46
8.64	6032.76
8.68	5888.26
8.72	5689.58
8.76	5689.58
8.8	6177.25
8.84	6249.5
8.88	5635.39
8.92	5599.27
8.96	5924.38
9	5545.08
9.04	5527.02
9.08	4768.41
9.12	5400.58
9.16	6213.38
9.2	5942.45
9.24	5346.4
9.28	5563.14
9.32	5581.2
9.36	5635.39
9.4	5490.89
9.44	5906.32
9.48	6159.19
9.52	5834.07
9.56	5707.64
9.6	5689.58
9.64	5346.4
9.68	5725.7
9.72	5527.02
9.76	5924.38
9.8	5201.9
9.84	5617.33
9.88	5689.58
9.92	5599.27
9.96	6105.01
10	5942.45
10.04	5490.89
10.08	5671.51
10.12	6159.19
10.16	5310.27
10.2	5508.95
10.24	6068.88
10.28	5508.95
10.32	6159.19
10.36	5599.27
10.4	5201.9
10.44	5906.32
10.48	5400.58
10.52	5346.4
10.56	5671.51
10.6	5743.76
10.64	6448.19
10.68	7459.67
10.72	7333.23
10.76	7297.11
10.8	6990.05
10.84	6032.76
10.88	5725.7
10.92	5779.89
10.96	5508.95
11	5635.39
11.04	5563.14
11.08	5472.83
11.12	5707.64
11.16	5996.63
11.2	6412.06
11.24	5779.89
11.28	5816.01
11.32	5761.82
11.36	5942.45
11.4	5906.32
11.44	5653.45
11.48	5653.45
11.52	5328.33
11.56	5761.82
11.6	5581.2
11.64	5093.53
11.68	5779.89
11.72	5671.51
11.76	6068.88
11.8	5725.7
11.84	5725.7
11.88	5816.01
11.92	6213.38
11.96	5508.95
12	5599.27
12.04	5978.57
12.08	5725.7
12.12	5599.27
12.16	5942.45
12.2	6105.01
12.24	6086.94
12.28	5328.33
12.32	5147.71
12.36	6412.06
12.4	5653.45
12.44	4858.72
12.48	5599.27
12.52	6086.94
12.56	6159.19
12.6	5545.08
12.64	5942.45
12.68	5617.33
12.72	6141.13
12.76	5797.95
12.8	5888.26
12.84	6321.75
12.88	6502.37
12.92	5834.07
12.96	6682.99
13	5581.2
13.04	6014.69
13.08	5545.08
13.12	6032.76
13.16	5581.2
13.2	5653.45
13.24	6141.13
13.28	5581.2
13.32	5725.7
13.36	5057.4
13.4	5761.82
13.44	5581.2
13.48	5797.95
13.52	5689.58
13.56	5960.51
13.6	6068.88
13.64	6267.56
13.68	6249.5
13.72	6050.82
13.76	5942.45
13.8	5779.89
13.84	6105.01
13.88	6105.01
13.92	5779.89
13.96	5924.38
14	5689.58
14.04	5165.77
14.08	5761.82
14.12	5816.01
14.16	5834.07
14.2	5797.95
14.24	6520.44
14.28	5725.7
14.32	5816.01
14.36	5725.7
14.4	5743.76
14.44	5924.38
14.48	5418.64
14.52	5563.14
14.56	6068.88
14.6	5707.64
14.64	5183.84
14.68	5563.14
14.72	5761.82
14.76	5219.96
14.8	6267.56
14.84	6105.01
14.88	5472.83
14.92	5978.57
14.96	5527.02
15	5292.21
15.04	6014.69
15.08	5906.32
15.12	6123.07
15.16	5834.07
15.2	6141.13
15.24	5527.02
15.28	5599.27
15.32	5418.64
15.36	5761.82
15.4	5689.58
15.44	6086.94
15.48	5852.14
15.52	6105.01
15.56	5093.53
15.6	5472.83
15.64	5436.71
15.68	5490.89
15.72	5545.08
15.76	5599.27
15.8	5454.77
15.84	6231.44
15.88	5129.65
15.92	5779.89
15.96	5147.71
16	5454.77
16.04	5292.21
16.08	5599.27
16.12	5382.52
16.16	5418.64
16.2	5075.46
16.24	5599.27
16.28	5219.96
16.32	5129.65
16.36	5039.34
16.4	4804.53
16.44	4949.03
16.48	4461.35
16.52	4985.15
16.56	4822.59
16.6	4930.97
16.64	5418.64
16.68	5238.02
16.72	5129.65
16.76	5274.15
16.8	4876.78
16.84	5725.7
16.88	5418.64
16.92	5201.9
16.96	5653.45
17	6484.31
17.04	7116.49
17.08	8182.15
17.12	8308.59
17.16	7260.98
17.2	6213.38
17.24	5382.52
17.28	5707.64
17.32	4804.53
17.36	5075.46
17.4	5310.27
17.44	5003.21
17.48	5165.77
17.52	4930.97
17.56	4967.09
17.6	5129.65
17.64	4786.47
17.68	4840.66
17.72	4732.28
17.76	4732.28
17.8	4840.66
17.84	5075.46
17.88	4840.66
17.92	4822.59
17.96	5129.65
18	5147.71
18.04	5021.28
18.08	4154.29
18.12	4985.15
18.16	5400.58
18.2	5111.59
18.24	6538.5
18.28	5816.01
18.32	5924.38
18.36	5075.46
18.4	5003.21
18.44	4641.97
18.48	5382.52
18.52	4876.78
18.56	4949.03
18.6	4262.67
18.64	4714.22
18.68	5021.28
18.72	4551.66
18.76	4334.92
18.8	5057.4
18.84	5617.33
18.88	5292.21
18.92	6177.25
18.96	7188.73
19	8236.34
19.04	10801.2
19.08	10458
19.12	9265.88
19.16	7279.05
19.2	6195.32
19.24	5346.4
19.28	4840.66
19.32	4967.09
19.36	5563.14
19.4	5256.08
19.44	5490.89
19.48	5400.58
19.52	5581.2
19.56	4732.28
19.6	5021.28
19.64	4641.97
19.68	4587.79
19.72	4732.28
19.76	4533.6
19.8	4136.23
19.84	4280.73
19.88	4515.54
19.92	4967.09
19.96	4352.98
20	4840.66
20.04	4461.35
20.08	4551.66
20.12	5382.52
20.16	4840.66
20.2	5129.65
20.24	4461.35
20.28	4190.42
20.32	4443.29
20.36	5111.59
20.4	4244.6
20.44	4316.85
20.48	4479.41
20.52	4316.85
20.56	4858.72
20.6	4876.78
20.64	4605.85
20.68	4569.72
20.72	4389.1
20.76	4696.16
20.8	4407.16
20.84	4280.73
20.88	4587.79
20.92	4533.6
20.96	4389.1
21	4660.03
21.04	4443.29
21.08	3811.11
21.12	3991.73
21.16	4587.79
21.2	4389.1
21.24	4497.47
21.28	4190.42
21.32	4280.73
21.36	4533.6
21.4	4641.97
21.44	4154.29
21.48	4027.86
21.52	4515.54
21.56	4858.72
21.6	4822.59
21.64	4551.66
21.68	4461.35
21.72	4443.29
21.76	4208.48
21.8	4244.6
21.84	4696.16
21.88	4172.36
21.92	4226.54
21.96	4316.85
22	4100.11
22.04	3774.99
22.08	4154.29
22.12	4316.85
22.16	4425.23
22.2	3684.68
22.24	4244.6
22.28	4298.79
22.32	4226.54
22.36	4804.53
22.4	4244.6
22.44	4172.36
22.48	4244.6
22.52	3901.42
22.56	3684.68
22.6	3901.42
22.64	3973.67
22.68	3720.8
22.72	4226.54
22.76	4262.67
22.8	4768.41
22.84	4533.6
22.88	4804.53
22.92	4768.41
22.96	5635.39
23	5635.39
23.04	5256.08
23.08	4732.28
23.12	4443.29
23.16	3865.3
23.2	4027.86
23.24	3811.11
23.28	4154.29
23.32	4027.86
23.36	4118.17
23.4	3955.61
23.44	3973.67
23.48	3756.93
23.52	3449.87
23.56	4118.17
23.6	3467.93
23.64	4027.86
23.68	3955.61
23.72	3883.36
23.76	3793.05
23.8	3612.43
23.84	3684.68
23.88	3413.75
23.92	3793.05
23.96	3919.49
24	3558.24
24.04	3738.86
24.08	3504.06
24.12	4027.86
24.16	3901.42
24.2	3648.55
24.24	3883.36
24.28	3901.42
24.32	3847.24
24.36	3955.61
24.4	3829.18
24.44	4876.78
24.48	5129.65
24.52	5599.27
24.56	6285.63
24.6	6123.07
24.64	4930.97
24.68	6123.07
24.72	5292.21
24.76	5545.08
24.8	5165.77
24.84	4660.03
24.88	4840.66
24.92	4045.92
24.96	3738.86
25	3522.12
25.04	3648.55
25.08	3522.12
25.12	3774.99
25.16	3287.31
25.2	3594.37
25.24	3341.5
25.28	3233.12
25.32	3088.63
25.36	3323.44
25.4	3413.75
25.44	3359.56
25.48	2691.26
25.52	3197
25.56	3197
25.6	2799.63
25.64	2926.07
25.68	2564.82
25.72	2889.94
25.76	3341.5
25.8	3251.19
25.84	2926.07
25.88	3052.5
25.92	3377.62
25.96	2817.69
26	2691.26
26.04	2673.2
26.08	3215.06
26.12	3178.94
26.16	2763.51
26.2	3251.19
26.24	2546.76
26.28	2853.82
26.32	2926.07
26.36	2853.82
26.4	2745.45
26.44	2564.82
26.48	2817.69
26.52	2853.82
26.56	2745.45
26.6	2980.25
26.64	2871.88
26.68	2926.07
26.72	2835.76
26.76	2637.07
26.8	2546.76
26.84	2908.01
26.88	2745.45
26.92	2600.95
26.96	2763.51
27	2998.32
27.04	2546.76
27.08	2311.95
27.12	2655.14
27.16	2781.57
27.2	2582.89
27.24	2492.58
27.28	2492.58
27.32	2871.88
27.36	2330.02
27.4	2275.83
27.44	2709.32
27.48	2348.08
27.52	2438.39
27.56	2582.89
27.6	2619.01
27.64	2781.57
27.68	2275.83
27.72	2492.58
27.76	2510.64
27.8	2600.95
27.84	2293.89
27.88	2474.51
27.92	2167.46
27.96	2366.14
28	2311.95
28.04	2456.45
28.08	2564.82
28.12	2311.95
28.16	2293.89
28.2	2438.39
28.24	2546.76
28.28	2637.07
28.32	2781.57
28.36	2275.83
28.4	2420.33
28.44	2492.58
28.48	2564.82
28.52	2293.89
28.56	2167.46
28.6	2619.01
28.64	2691.26
28.68	3016.38
28.72	2908.01
28.76	2944.13
28.8	3124.75
28.84	2293.89
28.88	2348.08
28.92	2456.45
28.96	2113.27
29	2077.15
29.04	2077.15
29.08	2131.33
29.12	2239.71
29.16	2239.71
29.2	2348.08
29.24	1968.77
29.28	1950.71
29.32	2330.02
29.36	1968.77
29.4	2185.52
29.44	2257.77
29.48	2257.77
29.52	1806.21
29.56	2004.9
29.6	2330.02
29.64	2311.95
29.68	2167.46
29.72	2022.96
29.76	2095.21
29.8	1968.77
29.84	2311.95
29.88	2041.02
29.92	2113.27
29.96	1806.21
30	2185.52
30.04	1553.34
30.08	2113.27
30.12	2041.02
30.16	1932.65
30.2	2041.02
30.24	2293.89
30.28	1643.66
30.32	2167.46
30.36	1914.59
30.4	2185.52
30.44	1842.34
30.48	2420.33
30.52	1770.09
30.56	2167.46
30.6	2004.9
30.64	1986.84
30.68	2041.02
30.72	1950.71
30.76	1950.71
30.8	2275.83
30.84	1733.97
30.88	1752.03
30.92	2059.08
30.96	1806.21
31	2149.4
31.04	1752.03
31.08	1824.28
31.12	1842.34
31.16	1770.09
31.2	1914.59
31.24	1896.53
31.28	2022.96
31.32	2004.9
31.36	1788.15
31.4	2041.02
31.44	2095.21
31.48	1932.65
31.52	1860.4
31.56	2311.95
31.6	1878.46
31.64	2059.08
31.68	2203.58
31.72	2456.45
31.76	2600.95
31.8	2167.46
31.84	1986.84
31.88	2275.83
31.92	1932.65
31.96	2113.27
32	1499.16
32.04	1733.97
32.08	1643.66
32.12	1643.66
32.16	1860.4
32.2	1607.53
32.24	1824.28
32.28	1697.84
32.32	1625.59
32.36	1824.28
32.4	1824.28
32.44	1679.78
32.48	1878.46
32.52	1986.84
32.56	1842.34
32.6	1336.6
32.64	1914.59
32.68	2113.27
32.72	1968.77
32.76	2022.96
32.8	2402.27
32.84	2293.89
32.88	2149.4
32.92	2546.76
32.96	2456.45
33	2582.89
33.04	3558.24
33.08	3540.18
33.12	3197
33.16	3323.44
33.2	2691.26
33.24	2275.83
33.28	1986.84
33.32	1968.77
33.36	2348.08
33.4	2149.4
33.44	1788.15
33.48	2041.02
33.52	1733.97
33.56	1860.4
33.6	1860.4
33.64	1679.78
33.68	2022.96
33.72	1264.35
33.76	1733.97
33.8	1932.65
33.84	1824.28
33.88	1625.59
33.92	1950.71
33.96	1860.4
34	1860.4
34.04	2221.64
34.08	1950.71
34.12	1571.41
34.16	1770.09
34.2	1697.84
34.24	1842.34
34.28	1553.34
34.32	1499.16
34.36	1589.47
34.4	1824.28
34.44	1481.1
34.48	1824.28
34.52	1842.34
34.56	1932.65
34.6	2366.14
34.64	2022.96
34.68	1896.53
34.72	1553.34
34.76	1824.28
34.8	1661.72
34.84	1607.53
34.88	1607.53
34.92	1553.34
34.96	1336.6
35	1589.47
35.04	1806.21
35.08	1535.28
35.12	1607.53
35.16	1607.53
35.2	1643.66
35.24	1571.41
35.28	1444.97
35.32	1770.09
35.36	1336.6
35.4	1715.9
35.44	1661.72
35.48	1463.03
35.52	1408.85
35.56	1661.72
35.6	1932.65
35.64	1481.1
35.68	1607.53
35.72	1535.28
35.76	1372.72
35.8	1426.91
35.84	1535.28
35.88	1643.66
35.92	1715.9
35.96	1752.03
36	1444.97
36.04	1535.28
36.08	1517.22
36.12	1679.78
36.16	1824.28
36.2	1860.4
36.24	1282.41
36.28	1733.97
36.32	1535.28
36.36	1535.28
36.4	1354.66
36.44	1426.91
36.48	1697.84
36.52	1408.85
36.56	1679.78
36.6	1517.22
36.64	1282.41
36.68	1733.97
36.72	1426.91
36.76	1607.53
36.8	1878.46
36.84	1788.15
36.88	1354.66
36.92	1535.28
36.96	1752.03
37	1336.6
37.04	1950.71
37.08	1499.16
37.12	1607.53
37.16	1354.66
37.2	1426.91
37.24	1553.34
37.28	1210.16
37.32	1697.84
37.36	1463.03
37.4	1661.72
37.44	1463.03
37.48	1860.4
37.52	1733.97
37.56	1679.78
37.6	1806.21
37.64	1661.72
37.68	1679.78
37.72	1842.34
37.76	1968.77
37.8	2275.83
37.84	2817.69
37.88	2474.51
37.92	2402.27
37.96	2022.96
38	1986.84
38.04	2004.9
38.08	1932.65
38.12	1752.03
38.16	1625.59
38.2	1535.28
38.24	1806.21
38.28	1878.46
38.32	1589.47
38.36	1354.66
38.4	1408.85
38.44	1228.23
38.48	1463.03
38.52	1571.41
38.56	1463.03
38.6	1589.47
38.64	1372.72
38.68	1426.91
38.72	1535.28
38.76	1300.47
38.8	1499.16
38.84	1264.35
38.88	1444.97
38.92	1408.85
38.96	1318.54
39	1210.16
39.04	1607.53
39.08	1083.73
39.12	1300.47
39.16	1300.47
39.2	1336.6
39.24	1047.6
39.28	1228.23
39.32	1047.6
39.36	1499.16
39.4	1210.16
39.44	1192.1
39.48	1174.04
39.52	1065.67
39.56	1155.98
39.6	993.418
39.64	1553.34
39.68	1300.47
39.72	1336.6
39.76	1228.23
39.8	1228.23
39.84	1463.03
39.88	1264.35
39.92	1174.04
39.96	1318.54
40	1210.16
40.04	1174.04
40.08	1318.54
40.12	1444.97
40.16	1174.04
40.2	1246.29
40.24	1155.98
40.28	1011.48
40.32	1463.03
40.36	1192.1
40.4	1282.41
40.44	1481.1
40.48	1282.41
40.52	1318.54
40.56	1444.97
40.6	1372.72
40.64	1246.29
40.68	1517.22
40.72	1444.97
40.76	1336.6
40.8	1065.67
40.84	1174.04
40.88	1444.97
40.92	1336.6
40.96	1372.72
41	1246.29
41.04	1155.98
41.08	1137.92
41.12	1047.6
41.16	1444.97
41.2	1246.29
41.24	1246.29
41.28	1155.98
41.32	1444.97
41.36	1137.92
41.4	1264.35
41.44	1390.79
41.48	1264.35
41.52	1210.16
41.56	1174.04
41.6	1119.85
41.64	1228.23
41.68	1210.16
41.72	1137.92
41.76	1300.47
41.8	1282.41
41.84	1354.66
41.88	1318.54
41.92	1481.1
41.96	1155.98
42	1246.29
42.04	1354.66
42.08	1390.79
42.12	1426.91
42.16	1192.1
42.2	1264.35
42.24	1679.78
42.28	993.418
42.32	1210.16
42.36	1228.23
42.4	1481.1
42.44	1228.23
42.48	1047.6
42.52	1282.41
42.56	1174.04
42.6	1228.23
42.64	1174.04
42.68	1282.41
42.72	1047.6
42.76	1246.29
42.8	1408.85
42.84	1246.29
42.88	1137.92
42.92	1174.04
42.96	1336.6
43	1228.23
43.04	1083.73
43.08	1246.29
43.12	1137.92
43.16	1029.54
43.2	1372.72
43.24	1119.85
43.28	1155.98
43.32	1481.1
43.36	1011.48
43.4	1065.67
43.44	1318.54
43.48	1101.79
43.52	921.169
43.56	1318.54
43.6	1065.67
43.64	1318.54
43.68	1264.35
43.72	1101.79
43.76	1264.35
43.8	1697.84
43.84	1408.85
43.88	1300.47
43.92	1246.29
43.96	1336.6
44	1264.35
44.04	1282.41
44.08	1535.28
44.12	1679.78
44.16	1390.79
44.2	1264.35
44.24	1336.6
44.28	1372.72
44.32	1101.79
44.36	975.356
44.4	1336.6
44.44	1282.41
44.48	903.107
44.52	1047.6
44.56	1119.85
44.6	1192.1
44.64	1210.16
44.68	1101.79
44.72	1047.6
44.76	1065.67
44.8	1282.41
44.84	758.61
44.88	1065.67
44.92	1300.47
44.96	1318.54
45	1318.54
45.04	1083.73
45.08	1119.85
45.12	1119.85
45.16	1155.98
45.2	975.356
45.24	1011.48
45.28	1101.79
45.32	1029.54
45.36	957.294
45.4	1083.73
45.44	866.983
45.48	1137.92
45.52	1047.6
45.56	1210.16
45.6	975.356
45.64	957.294
45.68	1192.1
45.72	1228.23
45.76	975.356
45.8	1047.6
45.84	1155.98
45.88	1192.1
45.92	1029.54
45.96	830.859
46	740.548
46.04	1264.35
46.08	921.169
46.12	1119.85
46.16	1083.73
46.2	1210.16
46.24	975.356
46.28	939.232
46.32	939.232
46.36	1318.54
46.4	1083.73
46.44	1083.73
46.48	1192.1
46.52	1119.85
46.56	1192.1
46.6	1137.92
46.64	1300.47
46.68	1029.54
46.72	921.169
46.76	1155.98
46.8	1210.16
46.84	1047.6
46.88	1029.54
46.92	1119.85
46.96	668.299
47	1174.04
47.04	921.169
47.08	1336.6
47.12	1137.92
47.16	848.921
47.2	885.045
47.24	830.859
47.28	1137.92
47.32	1101.79
47.36	975.356
47.4	993.418
47.44	1083.73
47.48	903.107
47.52	1047.6
47.56	830.859
47.6	794.734
47.64	848.921
47.68	975.356
47.72	1011.48
47.76	939.232
47.8	1137.92
47.84	1119.85
47.88	957.294
47.92	1047.6
47.96	1282.41
48	1011.48
48.04	1065.67
48.08	1083.73
48.12	957.294
48.16	1065.67
48.2	921.169
48.24	1083.73
48.28	1119.85
48.32	1011.48
48.36	1083.73
48.4	1011.48
48.44	1137.92
48.48	776.672
48.52	812.797
48.56	975.356
48.6	1101.79
48.64	993.418
48.68	1011.48
48.72	740.548
48.76	903.107
48.8	722.486
48.84	1083.73
48.88	885.045
48.92	794.734
48.96	975.356
49	957.294
49.04	686.362
49.08	975.356
49.12	758.61
49.16	866.983
49.2	1029.54
49.24	885.045
49.28	1011.48
49.32	848.921
49.36	1029.54
49.4	1047.6
49.44	921.169
49.48	1174.04
49.52	1065.67
49.56	1119.85
49.6	939.232
49.64	1101.79
49.68	848.921
49.72	903.107
49.76	1047.6
49.8	830.859
49.84	885.045
49.88	903.107
49.92	921.169
49.96	957.294
50	885.045
50.04	957.294
50.08	885.045
50.12	776.672
50.16	848.921
50.2	921.169
50.24	740.548
50.28	848.921
50.32	903.107
50.36	740.548
50.4	830.859
50.44	1011.48
50.48	957.294
50.52	939.232
50.56	957.294
50.6	1047.6
50.64	939.232
50.68	921.169
50.72	1011.48
50.76	1192.1
50.8	993.418
50.84	830.859
50.88	1137.92
50.92	1011.48
50.96	848.921
51	866.983
51.04	668.299
51.08	848.921
51.12	758.61
51.16	740.548
51.2	1029.54
51.24	740.548
51.28	830.859
51.32	848.921
51.36	885.045
51.4	885.045
51.44	740.548
51.48	903.107
51.52	668.299
51.56	776.672
51.6	848.921
51.64	632.175
51.68	830.859
51.72	975.356
51.76	668.299
51.8	903.107
51.84	650.237
51.88	812.797
51.92	903.107
51.96	921.169
52	650.237
52.04	632.175
52.08	939.232
52.12	650.237
52.16	668.299
52.2	848.921
52.24	903.107
52.28	686.362
52.32	758.61
52.36	812.797
52.4	830.859
52.44	794.734
52.48	939.232
52.52	885.045
52.56	885.045
52.6	668.299
52.64	704.424
52.68	866.983
52.72	577.989
52.76	812.797
52.8	921.169
52.84	740.548
52.88	758.61
52.92	758.61
52.96	1083.73
53	830.859
53.04	830.859
53.08	704.424
53.12	722.486
53.16	758.61
53.2	614.113
53.24	830.859
53.28	957.294
53.32	596.051
53.36	776.672
53.4	885.045
53.44	812.797
53.48	830.859
53.52	830.859
53.56	614.113
53.6	650.237
53.64	848.921
53.68	939.232
53.72	921.169
53.76	830.859
53.8	1029.54
53.84	939.232
53.88	957.294
53.92	939.232
53.96	903.107
54	776.672
54.04	830.859
54.08	686.362
54.12	776.672
54.16	993.418
54.2	704.424
54.24	577.989
54.28	614.113
54.32	614.113
54.36	740.548
54.4	939.232
54.44	704.424
54.48	866.983
54.52	758.61
54.56	650.237
54.6	740.548
54.64	704.424
54.68	722.486
54.72	668.299
54.76	776.672
54.8	794.734
54.84	668.299
54.88	776.672
54.92	830.859
54.96	722.486
55	848.921
55.04	758.61
55.08	722.486
55.12	776.672
55.16	686.362
55.2	650.237
55.24	812.797
55.28	614.113
55.32	704.424
55.36	830.859
55.4	885.045
55.44	776.672
55.48	758.61
55.52	830.859
55.56	758.61
55.6	668.299
55.64	830.859
55.68	577.989
55.72	776.672
55.76	668.299
55.8	632.175
55.84	740.548
55.88	848.921
55.92	722.486
55.96	866.983
56	650.237
56.04	776.672
56.08	704.424
56.12	686.362
56.16	776.672
56.2	650.237
56.24	740.548
56.28	740.548
56.32	668.299
56.36	812.797
56.4	577.989
56.44	740.548
56.48	668.299
56.52	559.927
56.56	704.424
56.6	668.299
56.64	614.113
56.68	614.113
56.72	505.74
56.76	541.864
56.8	722.486
56.84	559.927
56.88	650.237
56.92	668.299
56.96	776.672
57	559.927
57.04	577.989
57.08	794.734
57.12	614.113
57.16	740.548
57.2	848.921
57.24	704.424
57.28	686.362
57.32	704.424
57.36	830.859
57.4	812.797
57.44	487.678
57.48	541.864
57.52	632.175
57.56	559.927
57.6	614.113
57.64	776.672
57.68	505.74
57.72	577.989
57.76	758.61
57.8	541.864
57.84	614.113
57.88	596.051
57.92	668.299
57.96	758.61
58	577.989
58.04	686.362
58.08	523.802
58.12	704.424
58.16	650.237
58.2	740.548
58.24	632.175
58.28	668.299
58.32	596.051
58.36	686.362
58.4	758.61
58.44	469.616
58.48	523.802
58.52	830.859
58.56	668.299
58.6	614.113
58.64	559.927
58.68	541.864
58.72	614.113
58.76	523.802
58.8	451.554
58.84	433.492
58.88	577.989
58.92	740.548
58.96	523.802
59	433.492
59.04	577.989
59.08	596.051
59.12	559.927
59.16	614.113
59.2	812.797
59.24	650.237
59.28	614.113
59.32	740.548
59.36	704.424
59.4	614.113
59.44	596.051
59.48	957.294
59.52	848.921
59.56	614.113
59.6	794.734
59.64	704.424
59.68	632.175
59.72	541.864
59.76	704.424
59.8	650.237
59.84	632.175
59.88	577.989
59.92	559.927
59.96	704.424
60	614.113