File: database/experiments/MU/xrd/1102/parallel/1101/xrd/25.TXT
Sample
Comments
Filename	C:\Data\西出研\梅木\20211102オペ\LiTFSI24wt_01_0001_0030-2_C_2θ.raw
Goniometer	SmartLab(In-plane)
Attachment	標準Zステージ
Monochromater	None
X	0
Y	0
Z	0.01756
ScanningMode	2Theta
ScanningType	Continuos Scanning
X-Ray	40kV/30mA
入射スリット	0.300mm
受光スリット1	20.000mm
受光スリット2	20.000mm
None
Start	5
Stop	60
Step	0.02
Speed	21.6746
Theta	0
5	5942.45
5.04	7080.36
5.08	6881.68
5.12	7279.05
5.16	6953.93
5.2	6267.56
5.24	6755.24
5.28	6285.63
5.32	6664.93
5.36	6773.31
5.4	7279.05
5.44	6953.93
5.48	6484.31
5.52	6791.37
5.56	6231.44
5.6	6430.12
5.64	6809.43
5.68	6285.63
5.72	6737.18
5.76	6773.31
5.8	6755.24
5.84	6520.44
5.88	6592.68
5.92	6773.31
5.96	6285.63
6	6899.74
6.04	6412.06
6.08	5870.2
6.12	7062.3
6.16	6068.88
6.2	6321.75
6.24	6177.25
6.28	6339.81
6.32	6574.62
6.36	6430.12
6.4	6195.32
6.44	5942.45
6.48	5779.89
6.52	6412.06
6.56	6357.88
6.6	5689.58
6.64	6105.01
6.68	6086.94
6.72	5635.39
6.76	6105.01
6.8	6014.69
6.84	6466.25
6.88	6014.69
6.92	5888.26
6.96	6141.13
7	5996.63
7.04	5725.7
7.08	5743.76
7.12	5960.51
7.16	5978.57
7.2	6068.88
7.24	6610.75
7.28	6285.63
7.32	5671.51
7.36	5816.01
7.4	5635.39
7.44	5256.08
7.48	6086.94
7.52	5689.58
7.56	5888.26
7.6	6448.19
7.64	5707.64
7.68	5797.95
7.72	5743.76
7.76	5761.82
7.8	5508.95
7.84	6141.13
7.88	5201.9
7.92	5454.77
7.96	5834.07
8	5418.64
8.04	5364.46
8.08	5346.4
8.12	6050.82
8.16	5870.2
8.2	5834.07
8.24	5147.71
8.28	5581.2
8.32	5761.82
8.36	5238.02
8.4	5490.89
8.44	5743.76
8.48	5725.7
8.52	5707.64
8.56	6050.82
8.6	6086.94
8.64	5418.64
8.68	5816.01
8.72	5671.51
8.76	6159.19
8.8	5761.82
8.84	6249.5
8.88	5689.58
8.92	6014.69
8.96	5472.83
9	5635.39
9.04	5147.71
9.08	5599.27
9.12	5779.89
9.16	6177.25
9.2	5545.08
9.24	5996.63
9.28	5617.33
9.32	5870.2
9.36	5508.95
9.4	5725.7
9.44	6213.38
9.48	5382.52
9.52	5924.38
9.56	5057.4
9.6	5707.64
9.64	5761.82
9.68	5382.52
9.72	5527.02
9.76	5057.4
9.8	5852.14
9.84	5400.58
9.88	6339.81
9.92	6141.13
9.96	5527.02
10	5563.14
10.04	5400.58
10.08	5382.52
10.12	5256.08
10.16	6014.69
10.2	5852.14
10.24	5382.52
10.28	5472.83
10.32	5418.64
10.36	5508.95
10.4	5382.52
10.44	6123.07
10.48	5490.89
10.52	5563.14
10.56	5653.45
10.6	5671.51
10.64	6068.88
10.68	6791.37
10.72	6610.75
10.76	7170.67
10.8	7333.23
10.84	6899.74
10.88	6917.8
10.92	6755.24
10.96	5960.51
11	5508.95
11.04	5924.38
11.08	5075.46
11.12	5761.82
11.16	5418.64
11.2	5797.95
11.24	6050.82
11.28	5725.7
11.32	5635.39
11.36	5183.84
11.4	6014.69
11.44	5779.89
11.48	5454.77
11.52	5346.4
11.56	6321.75
11.6	5527.02
11.64	5743.76
11.68	5816.01
11.72	5924.38
11.76	5201.9
11.8	5219.96
11.84	5671.51
11.88	5779.89
11.92	5400.58
11.96	6159.19
12	6050.82
12.04	5219.96
12.08	6303.69
12.12	5689.58
12.16	5761.82
12.2	6068.88
12.24	6123.07
12.28	5364.46
12.32	6068.88
12.36	6014.69
12.4	5816.01
12.44	5852.14
12.48	5906.32
12.52	6014.69
12.56	5906.32
12.6	5924.38
12.64	6159.19
12.68	5996.63
12.72	5743.76
12.76	5256.08
12.8	5653.45
12.84	5870.2
12.88	5942.45
12.92	5725.7
12.96	5996.63
13	5906.32
13.04	5725.7
13.08	5779.89
13.12	5436.71
13.16	5707.64
13.2	5761.82
13.24	6032.76
13.28	5978.57
13.32	5256.08
13.36	5779.89
13.4	5581.2
13.44	5996.63
13.48	5707.64
13.52	5834.07
13.56	5888.26
13.6	5888.26
13.64	6394
13.68	6213.38
13.72	5418.64
13.76	5617.33
13.8	5996.63
13.84	5689.58
13.88	6339.81
13.92	5725.7
13.96	5888.26
14	5870.2
14.04	5960.51
14.08	5942.45
14.12	6195.32
14.16	6032.76
14.2	6285.63
14.24	6050.82
14.28	5527.02
14.32	5364.46
14.36	5816.01
14.4	5978.57
14.44	5924.38
14.48	5743.76
14.52	6231.44
14.56	5490.89
14.6	5454.77
14.64	5617.33
14.68	5364.46
14.72	5527.02
14.76	5888.26
14.8	5418.64
14.84	6195.32
14.88	5617.33
14.92	5545.08
14.96	5238.02
15	5111.59
15.04	5906.32
15.08	5490.89
15.12	5761.82
15.16	6213.38
15.2	5400.58
15.24	5563.14
15.28	5039.34
15.32	5382.52
15.36	5852.14
15.4	5256.08
15.44	5472.83
15.48	5924.38
15.52	5490.89
15.56	5707.64
15.6	5436.71
15.64	5346.4
15.68	5292.21
15.72	5201.9
15.76	5436.71
15.8	5490.89
15.84	5761.82
15.88	5671.51
15.92	5274.15
15.96	5328.33
16	5689.58
16.04	5346.4
16.08	5274.15
16.12	5183.84
16.16	5599.27
16.2	5075.46
16.24	4967.09
16.28	5021.28
16.32	5364.46
16.36	6050.82
16.4	5039.34
16.44	5057.4
16.48	4912.9
16.52	4714.22
16.56	5545.08
16.6	4985.15
16.64	5779.89
16.68	5508.95
16.72	5490.89
16.76	5328.33
16.8	5111.59
16.84	4641.97
16.88	5490.89
16.92	5490.89
16.96	5183.84
17	5165.77
17.04	5797.95
17.08	6086.94
17.12	6574.62
17.16	7116.49
17.2	7857.03
17.24	7098.42
17.28	6105.01
17.32	5454.77
17.36	6050.82
17.4	5129.65
17.44	5003.21
17.48	4894.84
17.52	4714.22
17.56	4985.15
17.6	4696.16
17.64	4533.6
17.68	4894.84
17.72	4732.28
17.76	4967.09
17.8	5219.96
17.84	5219.96
17.88	5057.4
17.92	5093.53
17.96	4750.34
18	5057.4
18.04	5400.58
18.08	5310.27
18.12	5075.46
18.16	5328.33
18.2	4967.09
18.24	5707.64
18.28	5816.01
18.32	6791.37
18.36	6339.81
18.4	5545.08
18.44	5617.33
18.48	4623.91
18.52	4912.9
18.56	5147.71
18.6	5256.08
18.64	5021.28
18.68	4732.28
18.72	5075.46
18.76	5075.46
18.8	4985.15
18.84	4822.59
18.88	4985.15
18.92	4804.53
18.96	5057.4
19	5978.57
19.04	7008.11
19.08	8146.03
19.12	9139.45
19.16	9283.94
19.2	7513.85
19.24	6682.99
19.28	5960.51
19.32	5725.7
19.36	5238.02
19.4	5219.96
19.44	4822.59
19.48	5364.46
19.52	4949.03
19.56	5165.77
19.6	5490.89
19.64	4840.66
19.68	4605.85
19.72	4389.1
19.76	4389.1
19.8	4858.72
19.84	4804.53
19.88	4551.66
19.92	4497.47
19.96	4930.97
20	4930.97
20.04	4100.11
20.08	4461.35
20.12	5003.21
20.16	4912.9
20.2	4425.23
20.24	4930.97
20.28	4930.97
20.32	4569.72
20.36	5003.21
20.4	4154.29
20.44	4298.79
20.48	5093.53
20.52	4515.54
20.56	4226.54
20.6	4479.41
20.64	4461.35
20.68	4154.29
20.72	4786.47
20.76	4226.54
20.8	4660.03
20.84	4858.72
20.88	4515.54
20.92	4587.79
20.96	4136.23
21	4623.91
21.04	4009.8
21.08	4334.92
21.12	5111.59
21.16	4569.72
21.2	4930.97
21.24	4371.04
21.28	4082.05
21.32	4045.92
21.36	4515.54
21.4	4714.22
21.44	4623.91
21.48	4876.78
21.52	4623.91
21.56	4425.23
21.6	4352.98
21.64	4316.85
21.68	4876.78
21.72	4352.98
21.76	4334.92
21.8	4443.29
21.84	3973.67
21.88	4009.8
21.92	4316.85
21.96	3937.55
22	4443.29
22.04	4027.86
22.08	3955.61
22.12	4208.48
22.16	3973.67
22.2	4118.17
22.24	4208.48
22.28	4045.92
22.32	4009.8
22.36	3937.55
22.4	4045.92
22.44	4623.91
22.48	4479.41
22.52	4515.54
22.56	4262.67
22.6	4172.36
22.64	4262.67
22.68	4082.05
22.72	4063.98
22.76	4244.6
22.8	4226.54
22.84	4515.54
22.88	3540.18
22.92	4027.86
22.96	4334.92
23	4244.6
23.04	4262.67
23.08	4389.1
23.12	5274.15
23.16	5581.2
23.2	4985.15
23.24	5075.46
23.28	4316.85
23.32	4009.8
23.36	3973.67
23.4	3504.06
23.44	4641.97
23.48	3648.55
23.52	4027.86
23.56	3955.61
23.6	4118.17
23.64	3251.19
23.68	4009.8
23.72	3955.61
23.76	4208.48
23.8	3919.49
23.84	3901.42
23.88	4172.36
23.92	4027.86
23.96	3431.81
24	3648.55
24.04	3522.12
24.08	3829.18
24.12	4063.98
24.16	3594.37
24.2	3594.37
24.24	3594.37
24.28	3178.94
24.32	3540.18
24.36	3612.43
24.4	3504.06
24.44	4316.85
24.48	3955.61
24.52	4190.42
24.56	4479.41
24.6	5075.46
24.64	5310.27
24.68	5418.64
24.72	5165.77
24.76	4840.66
24.8	4226.54
24.84	4389.1
24.88	5111.59
24.92	5093.53
24.96	4949.03
25	4822.59
25.04	4515.54
25.08	3955.61
25.12	3684.68
25.16	3756.93
25.2	3973.67
25.24	3215.06
25.28	3558.24
25.32	3287.31
25.36	3269.25
25.4	3142.81
25.44	3034.44
25.48	3251.19
25.52	3847.24
25.56	3178.94
25.6	3251.19
25.64	3269.25
25.68	3215.06
25.72	2926.07
25.76	3088.63
25.8	3197
25.84	3178.94
25.88	2908.01
25.92	3197
25.96	2727.38
26	2980.25
26.04	2962.19
26.08	2673.2
26.12	3251.19
26.16	3215.06
26.2	3088.63
26.24	2980.25
26.28	3124.75
26.32	2637.07
26.36	2745.45
26.4	2853.82
26.44	2709.32
26.48	2835.76
26.52	2745.45
26.56	3178.94
26.6	2673.2
26.64	2889.94
26.68	2817.69
26.72	2980.25
26.76	2655.14
26.8	2745.45
26.84	2853.82
26.88	2889.94
26.92	2799.63
26.96	2745.45
27	2745.45
27.04	2926.07
27.08	2510.64
27.12	2727.38
27.16	2384.2
27.2	2781.57
27.24	2817.69
27.28	2673.2
27.32	3395.68
27.36	3106.69
27.4	2889.94
27.44	2546.76
27.48	2366.14
27.52	2384.2
27.56	2582.89
27.6	2311.95
27.64	2691.26
27.68	2691.26
27.72	2348.08
27.76	2420.33
27.8	2637.07
27.84	2528.7
27.88	2962.19
27.92	2149.4
27.96	2727.38
28	2438.39
28.04	2203.58
28.08	2257.77
28.12	2600.95
28.16	2348.08
28.2	2293.89
28.24	2420.33
28.28	2311.95
28.32	2257.77
28.36	2546.76
28.4	2203.58
28.44	2330.02
28.48	2275.83
28.52	2366.14
28.56	2691.26
28.6	2546.76
28.64	2022.96
28.68	2799.63
28.72	2239.71
28.76	2311.95
28.8	2691.26
28.84	3106.69
28.88	2853.82
28.92	2908.01
28.96	3052.5
29	2998.32
29.04	2131.33
29.08	2420.33
29.12	2474.51
29.16	2492.58
29.2	2149.4
29.24	2402.27
29.28	2239.71
29.32	1968.77
29.36	2420.33
29.4	2384.2
29.44	2185.52
29.48	2311.95
29.52	1968.77
29.56	2131.33
29.6	2293.89
29.64	1733.97
29.68	2185.52
29.72	2077.15
29.76	1824.28
29.8	2113.27
29.84	1752.03
29.88	2275.83
29.92	1968.77
29.96	2275.83
30	1986.84
30.04	2492.58
30.08	2059.08
30.12	2257.77
30.16	2113.27
30.2	2456.45
30.24	2311.95
30.28	2113.27
30.32	2185.52
30.36	2149.4
30.4	2149.4
30.44	2095.21
30.48	1806.21
30.52	2221.64
30.56	2022.96
30.6	1788.15
30.64	2095.21
30.68	2275.83
30.72	2239.71
30.76	2293.89
30.8	2185.52
30.84	2041.02
30.88	1986.84
30.92	1842.34
30.96	1914.59
31	1733.97
31.04	1896.53
31.08	2077.15
31.12	1932.65
31.16	1986.84
31.2	1878.46
31.24	1860.4
31.28	1896.53
31.32	1932.65
31.36	2167.46
31.4	1679.78
31.44	1950.71
31.48	1932.65
31.52	1770.09
31.56	2257.77
31.6	2004.9
31.64	1842.34
31.68	1788.15
31.72	2004.9
31.76	1752.03
31.8	2257.77
31.84	2366.14
31.88	1733.97
31.92	2131.33
31.96	2510.64
32	2203.58
32.04	1950.71
32.08	2113.27
32.12	1932.65
32.16	2275.83
32.2	2275.83
32.24	1878.46
32.28	1896.53
32.32	1806.21
32.36	1715.9
32.4	2221.64
32.44	1697.84
32.48	2257.77
32.52	1914.59
32.56	2185.52
32.6	2149.4
32.64	1788.15
32.68	1770.09
32.72	2077.15
32.76	2221.64
32.8	1842.34
32.84	1715.9
32.88	2004.9
32.92	1733.97
32.96	2149.4
33	2022.96
33.04	2239.71
33.08	2203.58
33.12	2167.46
33.16	2203.58
33.2	2528.7
33.24	2799.63
33.28	2799.63
33.32	3359.56
33.36	3142.81
33.4	2763.51
33.44	2980.25
33.48	3106.69
33.52	2077.15
33.56	2366.14
33.6	1950.71
33.64	1914.59
33.68	1986.84
33.72	1752.03
33.76	2077.15
33.8	1842.34
33.84	1878.46
33.88	1878.46
33.92	1589.47
33.96	1715.9
34	1571.41
34.04	1932.65
34.08	1914.59
34.12	1986.84
34.16	1661.72
34.2	1824.28
34.24	2077.15
34.28	2203.58
34.32	1426.91
34.36	1715.9
34.4	1896.53
34.44	1679.78
34.48	1643.66
34.52	2167.46
34.56	1752.03
34.6	1788.15
34.64	1968.77
34.68	1824.28
34.72	2059.08
34.76	1643.66
34.8	2077.15
34.84	1752.03
34.88	1824.28
34.92	1878.46
34.96	1499.16
35	1535.28
35.04	1788.15
35.08	1517.22
35.12	1625.59
35.16	1715.9
35.2	1625.59
35.24	1210.16
35.28	1733.97
35.32	1589.47
35.36	1354.66
35.4	1733.97
35.44	1426.91
35.48	1860.4
35.52	1733.97
35.56	1535.28
35.6	1246.29
35.64	1842.34
35.68	1661.72
35.72	1824.28
35.76	1336.6
35.8	1643.66
35.84	1228.23
35.88	1463.03
35.92	1607.53
35.96	1499.16
36	1697.84
36.04	1444.97
36.08	1553.34
36.12	1571.41
36.16	1625.59
36.2	1679.78
36.24	1661.72
36.28	1752.03
36.32	1860.4
36.36	1318.54
36.4	1896.53
36.44	1661.72
36.48	1770.09
36.52	1896.53
36.56	1878.46
36.6	1463.03
36.64	1752.03
36.68	1282.41
36.72	1625.59
36.76	1535.28
36.8	1535.28
36.84	1390.79
36.88	1625.59
36.92	1282.41
36.96	1661.72
37	1697.84
37.04	1968.77
37.08	1318.54
37.12	1842.34
37.16	1553.34
37.2	1444.97
37.24	1535.28
37.28	1354.66
37.32	1896.53
37.36	1228.23
37.4	1408.85
37.44	1155.98
37.48	1463.03
37.52	1408.85
37.56	1354.66
37.6	1318.54
37.64	1733.97
37.68	1444.97
37.72	1444.97
37.76	1318.54
37.8	1643.66
37.84	1535.28
37.88	1535.28
37.92	1643.66
37.96	1878.46
38	1860.4
38.04	2022.96
38.08	1878.46
38.12	2004.9
38.16	2582.89
38.2	1806.21
38.24	2095.21
38.28	1932.65
38.32	2167.46
38.36	1571.41
38.4	2203.58
38.44	1824.28
38.48	1679.78
38.52	1571.41
38.56	1878.46
38.6	1932.65
38.64	1571.41
38.68	1571.41
38.72	1481.1
38.76	1661.72
38.8	1065.67
38.84	1372.72
38.88	1463.03
38.92	1788.15
38.96	1481.1
39	1354.66
39.04	1174.04
39.08	1354.66
39.12	1192.1
39.16	1282.41
39.2	1174.04
39.24	1119.85
39.28	1354.66
39.32	1354.66
39.36	1101.79
39.4	1444.97
39.44	1174.04
39.48	1246.29
39.52	1336.6
39.56	1228.23
39.6	1318.54
39.64	1300.47
39.68	1481.1
39.72	1354.66
39.76	1336.6
39.8	1535.28
39.84	1083.73
39.88	1210.16
39.92	1625.59
39.96	1607.53
40	1282.41
40.04	1318.54
40.08	1083.73
40.12	1390.79
40.16	1101.79
40.2	1318.54
40.24	1137.92
40.28	1119.85
40.32	1300.47
40.36	1354.66
40.4	1318.54
40.44	1264.35
40.48	1029.54
40.52	1282.41
40.56	1210.16
40.6	1210.16
40.64	1192.1
40.68	1481.1
40.72	1517.22
40.76	1463.03
40.8	1517.22
40.84	1336.6
40.88	1426.91
40.92	1444.97
40.96	1354.66
41	1119.85
41.04	1318.54
41.08	1517.22
41.12	1300.47
41.16	1426.91
41.2	1354.66
41.24	993.418
41.28	1264.35
41.32	1282.41
41.36	1119.85
41.4	1264.35
41.44	1246.29
41.48	1318.54
41.52	1282.41
41.56	1210.16
41.6	1372.72
41.64	1137.92
41.68	1192.1
41.72	1011.48
41.76	1499.16
41.8	1282.41
41.84	1318.54
41.88	1246.29
41.92	1011.48
41.96	1354.66
42	993.418
42.04	848.921
42.08	1029.54
42.12	1047.6
42.16	1282.41
42.2	1137.92
42.24	1318.54
42.28	1390.79
42.32	1571.41
42.36	1264.35
42.4	1210.16
42.44	1517.22
42.48	1408.85
42.52	1336.6
42.56	1318.54
42.6	1300.47
42.64	1499.16
42.68	1029.54
42.72	1354.66
42.76	1065.67
42.8	866.983
42.84	1354.66
42.88	1372.72
42.92	1517.22
42.96	1011.48
43	1065.67
43.04	1119.85
43.08	1246.29
43.12	1336.6
43.16	1481.1
43.2	1264.35
43.24	1047.6
43.28	1174.04
43.32	1390.79
43.36	1282.41
43.4	1264.35
43.44	1101.79
43.48	939.232
43.52	1282.41
43.56	1282.41
43.6	1354.66
43.64	1083.73
43.68	1390.79
43.72	1390.79
43.76	1444.97
43.8	1101.79
43.84	1011.48
43.88	1390.79
43.92	1553.34
43.96	957.294
44	1426.91
44.04	1372.72
44.08	1047.6
44.12	1444.97
44.16	1354.66
44.2	1155.98
44.24	1607.53
44.28	1390.79
44.32	1228.23
44.36	1246.29
44.4	1372.72
44.44	1300.47
44.48	1137.92
44.52	1228.23
44.56	1174.04
44.6	1210.16
44.64	1011.48
44.68	1282.41
44.72	1174.04
44.76	1083.73
44.8	993.418
44.84	1029.54
44.88	1047.6
44.92	903.107
44.96	957.294
45	1408.85
45.04	1101.79
45.08	1192.1
45.12	1065.67
45.16	903.107
45.2	975.356
45.24	1318.54
45.28	1192.1
45.32	1047.6
45.36	939.232
45.4	993.418
45.44	975.356
45.48	1192.1
45.52	1246.29
45.56	1065.67
45.6	1101.79
45.64	939.232
45.68	1210.16
45.72	1011.48
45.76	903.107
45.8	812.797
45.84	1119.85
45.88	975.356
45.92	975.356
45.96	1083.73
46	722.486
46.04	993.418
46.08	1155.98
46.12	921.169
46.16	975.356
46.2	957.294
46.24	1101.79
46.28	921.169
46.32	1047.6
46.36	957.294
46.4	1119.85
46.44	903.107
46.48	993.418
46.52	1246.29
46.56	1192.1
46.6	993.418
46.64	1137.92
46.68	903.107
46.72	1011.48
46.76	1192.1
46.8	993.418
46.84	939.232
46.88	1047.6
46.92	1101.79
46.96	1282.41
47	1101.79
47.04	1155.98
47.08	1336.6
47.12	1192.1
47.16	830.859
47.2	1101.79
47.24	1137.92
47.28	1119.85
47.32	1192.1
47.36	1065.67
47.4	1300.47
47.44	1174.04
47.48	1282.41
47.52	1011.48
47.56	1011.48
47.6	848.921
47.64	1246.29
47.68	1119.85
47.72	1101.79
47.76	975.356
47.8	975.356
47.84	1119.85
47.88	1047.6
47.92	885.045
47.96	830.859
48	975.356
48.04	885.045
48.08	921.169
48.12	975.356
48.16	975.356
48.2	957.294
48.24	975.356
48.28	885.045
48.32	957.294
48.36	993.418
48.4	1119.85
48.44	1083.73
48.48	1246.29
48.52	957.294
48.56	993.418
48.6	686.362
48.64	848.921
48.68	975.356
48.72	848.921
48.76	1174.04
48.8	975.356
48.84	903.107
48.88	885.045
48.92	975.356
48.96	939.232
49	812.797
49.04	1101.79
49.08	957.294
49.12	740.548
49.16	650.237
49.2	704.424
49.24	830.859
49.28	866.983
49.32	1011.48
49.36	1065.67
49.4	704.424
49.44	776.672
49.48	1137.92
49.52	830.859
49.56	993.418
49.6	866.983
49.64	903.107
49.68	975.356
49.72	975.356
49.76	812.797
49.8	885.045
49.84	957.294
49.88	885.045
49.92	1011.48
49.96	975.356
50	975.356
50.04	848.921
50.08	794.734
50.12	866.983
50.16	632.175
50.2	975.356
50.24	1083.73
50.28	1065.67
50.32	776.672
50.36	1011.48
50.4	830.859
50.44	776.672
50.48	830.859
50.52	830.859
50.56	1029.54
50.6	993.418
50.64	1155.98
50.68	848.921
50.72	848.921
50.76	758.61
50.8	1011.48
50.84	1029.54
50.88	921.169
50.92	722.486
50.96	812.797
51	903.107
51.04	975.356
51.08	975.356
51.12	921.169
51.16	830.859
51.2	1011.48
51.24	1047.6
51.28	1065.67
51.32	776.672
51.36	866.983
51.4	830.859
51.44	921.169
51.48	957.294
51.52	830.859
51.56	993.418
51.6	794.734
51.64	1192.1
51.68	722.486
51.72	650.237
51.76	1011.48
51.8	776.672
51.84	921.169
51.88	686.362
51.92	830.859
51.96	704.424
52	758.61
52.04	614.113
52.08	740.548
52.12	794.734
52.16	596.051
52.2	794.734
52.24	903.107
52.28	758.61
52.32	577.989
52.36	830.859
52.4	939.232
52.44	866.983
52.48	1119.85
52.52	848.921
52.56	812.797
52.6	740.548
52.64	686.362
52.68	596.051
52.72	812.797
52.76	614.113
52.8	885.045
52.84	758.61
52.88	848.921
52.92	830.859
52.96	650.237
53	686.362
53.04	632.175
53.08	812.797
53.12	866.983
53.16	722.486
53.2	722.486
53.24	559.927
53.28	975.356
53.32	794.734
53.36	866.983
53.4	686.362
53.44	903.107
53.48	722.486
53.52	794.734
53.56	686.362
53.6	668.299
53.64	577.989
53.68	885.045
53.72	668.299
53.76	451.554
53.8	668.299
53.84	776.672
53.88	812.797
53.92	776.672
53.96	812.797
54	866.983
54.04	848.921
54.08	830.859
54.12	939.232
54.16	866.983
54.2	830.859
54.24	866.983
54.28	1029.54
54.32	1065.67
54.36	812.797
54.4	794.734
54.44	903.107
54.48	794.734
54.52	794.734
54.56	830.859
54.6	885.045
54.64	596.051
54.68	577.989
54.72	776.672
54.76	975.356
54.8	668.299
54.84	668.299
54.88	596.051
54.92	722.486
54.96	704.424
55	812.797
55.04	632.175
55.08	704.424
55.12	614.113
55.16	722.486
55.2	668.299
55.24	704.424
55.28	722.486
55.32	866.983
55.36	596.051
55.4	776.672
55.44	650.237
55.48	903.107
55.52	1029.54
55.56	885.045
55.6	830.859
55.64	776.672
55.68	885.045
55.72	794.734
55.76	758.61
55.8	650.237
55.84	559.927
55.88	686.362
55.92	668.299
55.96	830.859
56	614.113
56.04	722.486
56.08	686.362
56.12	650.237
56.16	794.734
56.2	523.802
56.24	632.175
56.28	614.113
56.32	794.734
56.36	812.797
56.4	740.548
56.44	921.169
56.48	577.989
56.52	885.045
56.56	776.672
56.6	830.859
56.64	722.486
56.68	614.113
56.72	577.989
56.76	794.734
56.8	758.61
56.84	596.051
56.88	686.362
56.92	686.362
56.96	758.61
57	596.051
57.04	614.113
57.08	650.237
57.12	596.051
57.16	776.672
57.2	559.927
57.24	704.424
57.28	541.864
57.32	885.045
57.36	722.486
57.4	433.492
57.44	830.859
57.48	596.051
57.52	740.548
57.56	722.486
57.6	722.486
57.64	704.424
57.68	469.616
57.72	758.61
57.76	776.672
57.8	812.797
57.84	776.672
57.88	632.175
57.92	740.548
57.96	794.734
58	830.859
58.04	596.051
58.08	397.367
58.12	541.864
58.16	686.362
58.2	632.175
58.24	614.113
58.28	596.051
58.32	740.548
58.36	415.429
58.4	577.989
58.44	614.113
58.48	740.548
58.52	794.734
58.56	523.802
58.6	614.113
58.64	596.051
58.68	794.734
58.72	632.175
58.76	397.367
58.8	794.734
58.84	632.175
58.88	740.548
58.92	903.107
58.96	487.678
59	632.175
59.04	614.113
59.08	686.362
59.12	505.74
59.16	740.548
59.2	704.424
59.24	686.362
59.28	686.362
59.32	614.113
59.36	704.424
59.4	668.299
59.44	668.299
59.48	577.989
59.52	794.734
59.56	632.175
59.6	614.113
59.64	776.672
59.68	577.989
59.72	469.616
59.76	668.299
59.8	722.486
59.84	632.175
59.88	776.672
59.92	686.362
59.96	686.362
60	668.299

60	812.797
59.98	379.305
60	270.932