File: database/experiments/MU/xrd/1102/parallel/1101/xrd/50.TXT
Sample
Comments
Filename	C:\Data\西出研\梅木\20211102オペ\LiTFSI24wt_02_0002_0049-1_C_2θ.raw
Goniometer	SmartLab(In-plane)
Attachment	標準Zステージ
Monochromater	None
X	0
Y	0
Z	0.01756
ScanningMode	2Theta
ScanningType	Continuos Scanning
X-Ray	40kV/30mA
入射スリット	0.300mm
受光スリット1	20.000mm
受光スリット2	20.000mm
None
Start	5
Stop	60
Step	0.02
Speed	21.6746
Theta	0
5	6791.37
5.04	6917.8
5.08	7044.24
5.12	7676.41
5.16	6664.93
5.2	7170.67
5.24	6899.74
5.28	7062.3
5.32	7838.97
5.36	7188.73
5.4	6321.75
5.44	6430.12
5.48	6339.81
5.52	6719.12
5.56	6646.87
5.6	6520.44
5.64	6628.81
5.68	7315.17
5.72	6412.06
5.76	6339.81
5.8	6466.25
5.84	6303.69
5.88	6791.37
5.92	6719.12
5.96	6502.37
6	6195.32
6.04	6195.32
6.08	6303.69
6.12	6249.5
6.16	6430.12
6.2	6827.49
6.24	6466.25
6.28	6339.81
6.32	6574.62
6.36	5834.07
6.4	5996.63
6.44	6773.31
6.48	5978.57
6.52	6141.13
6.56	5852.14
6.6	6159.19
6.64	5834.07
6.68	5996.63
6.72	6159.19
6.76	6285.63
6.8	6105.01
6.84	5779.89
6.88	5906.32
6.92	5689.58
6.96	5852.14
7	5653.45
7.04	6520.44
7.08	5816.01
7.12	6249.5
7.16	6357.88
7.2	6050.82
7.24	6701.06
7.28	6249.5
7.32	5870.2
7.36	5960.51
7.4	6014.69
7.44	5978.57
7.48	5761.82
7.52	6195.32
7.56	5816.01
7.6	6231.44
7.64	5201.9
7.68	5960.51
7.72	5454.77
7.76	5599.27
7.8	5834.07
7.84	5834.07
7.88	5743.76
7.92	5490.89
7.96	5671.51
8	5761.82
8.04	6105.01
8.08	5454.77
8.12	5870.2
8.16	5725.7
8.2	5870.2
8.24	5743.76
8.28	5978.57
8.32	5454.77
8.36	5942.45
8.4	5924.38
8.44	5635.39
8.48	6032.76
8.52	5490.89
8.56	5852.14
8.6	5617.33
8.64	5653.45
8.68	6050.82
8.72	6050.82
8.76	5888.26
8.8	5382.52
8.84	6086.94
8.88	5888.26
8.92	5743.76
8.96	5617.33
9	5545.08
9.04	5346.4
9.08	5653.45
9.12	4985.15
9.16	5563.14
9.2	5870.2
9.24	5508.95
9.28	5743.76
9.32	5653.45
9.36	5472.83
9.4	5183.84
9.44	5165.77
9.48	5996.63
9.52	5599.27
9.56	5834.07
9.6	5816.01
9.64	6014.69
9.68	5454.77
9.72	5960.51
9.76	5797.95
9.8	5653.45
9.84	5527.02
9.88	5238.02
9.92	5527.02
9.96	5147.71
10	5292.21
10.04	6339.81
10.08	5942.45
10.12	6213.38
10.16	6105.01
10.2	5942.45
10.24	6032.76
10.28	5743.76
10.32	5617.33
10.36	5870.2
10.4	5599.27
10.44	5545.08
10.48	5888.26
10.52	6105.01
10.56	5996.63
10.6	6719.12
10.64	6321.75
10.68	6574.62
10.72	6556.56
10.76	7098.42
10.8	6863.62
10.84	6737.18
10.88	6502.37
10.92	6213.38
10.96	6032.76
11	5238.02
11.04	5490.89
11.08	5545.08
11.12	5346.4
11.16	6014.69
11.2	5779.89
11.24	5508.95
11.28	5653.45
11.32	5996.63
11.36	5996.63
11.4	5527.02
11.44	6086.94
11.48	5508.95
11.52	5942.45
11.56	5581.2
11.6	5960.51
11.64	5418.64
11.68	6195.32
11.72	5870.2
11.76	5472.83
11.8	5707.64
11.84	6339.81
11.88	6195.32
11.92	6412.06
11.96	5960.51
12	6159.19
12.04	6086.94
12.08	5743.76
12.12	6177.25
12.16	5978.57
12.2	5671.51
12.24	5924.38
12.28	5472.83
12.32	5834.07
12.36	5960.51
12.4	5816.01
12.44	5472.83
12.48	5924.38
12.52	6159.19
12.56	5888.26
12.6	5942.45
12.64	5653.45
12.68	6195.32
12.72	5834.07
12.76	5671.51
12.8	6177.25
12.84	5725.7
12.88	5996.63
12.92	5906.32
12.96	5924.38
13	6014.69
13.04	5274.15
13.08	6105.01
13.12	5689.58
13.16	6285.63
13.2	5508.95
13.24	6141.13
13.28	6105.01
13.32	5527.02
13.36	5852.14
13.4	5743.76
13.44	5436.71
13.48	6375.94
13.52	5816.01
13.56	5743.76
13.6	5563.14
13.64	6628.81
13.68	5852.14
13.72	6068.88
13.76	5599.27
13.8	5743.76
13.84	5924.38
13.88	6375.94
13.92	5743.76
13.96	5797.95
14	6014.69
14.04	5490.89
14.08	5996.63
14.12	5563.14
14.16	5490.89
14.2	5834.07
14.24	5779.89
14.28	5761.82
14.32	5996.63
14.36	5581.2
14.4	5942.45
14.44	5599.27
14.48	5581.2
14.52	5545.08
14.56	5852.14
14.6	6195.32
14.64	5310.27
14.68	6195.32
14.72	5635.39
14.76	5834.07
14.8	5942.45
14.84	5834.07
14.88	5599.27
14.92	5816.01
14.96	5870.2
15	5256.08
15.04	6249.5
15.08	5725.7
15.12	5490.89
15.16	5635.39
15.2	5725.7
15.24	5653.45
15.28	5545.08
15.32	5436.71
15.36	5689.58
15.4	5527.02
15.44	5545.08
15.48	5346.4
15.52	5960.51
15.56	5238.02
15.6	6430.12
15.64	5563.14
15.68	5183.84
15.72	5617.33
15.76	4949.03
15.8	5761.82
15.84	5382.52
15.88	5490.89
15.92	5906.32
15.96	5328.33
16	5563.14
16.04	4804.53
16.08	5111.59
16.12	5454.77
16.16	5238.02
16.2	5003.21
16.24	5400.58
16.28	4930.97
16.32	4894.84
16.36	5490.89
16.4	5274.15
16.44	5743.76
16.48	5274.15
16.52	5057.4
16.56	5364.46
16.6	5075.46
16.64	5328.33
16.68	5021.28
16.72	4967.09
16.76	4949.03
16.8	5238.02
16.84	5147.71
16.88	5328.33
16.92	5310.27
16.96	5346.4
17	5888.26
17.04	5635.39
17.08	6375.94
17.12	6682.99
17.16	7152.61
17.2	7857.03
17.24	7513.85
17.28	6448.19
17.32	5039.34
17.36	5581.2
17.4	5075.46
17.44	4822.59
17.48	5003.21
17.52	4696.16
17.56	4587.79
17.6	5021.28
17.64	4930.97
17.68	5003.21
17.72	4804.53
17.76	5274.15
17.8	4623.91
17.84	4949.03
17.88	5075.46
17.92	5021.28
17.96	5039.34
18	5129.65
18.04	5256.08
18.08	5165.77
18.12	4696.16
18.16	4750.34
18.2	4190.42
18.24	5165.77
18.28	5527.02
18.32	5960.51
18.36	5888.26
18.4	5545.08
18.44	5147.71
18.48	4858.72
18.52	5003.21
18.56	5057.4
18.6	4515.54
18.64	4425.23
18.68	4912.9
18.72	4389.1
18.76	4912.9
18.8	4696.16
18.84	4551.66
18.88	4858.72
18.92	4912.9
18.96	6032.76
19	5725.7
19.04	6935.86
19.08	8615.64
19.12	9464.57
19.16	9410.38
19.2	7549.98
19.24	7351.29
19.28	5490.89
19.32	5147.71
19.36	5075.46
19.4	4840.66
19.44	4840.66
19.48	4822.59
19.52	5183.84
19.56	5707.64
19.6	4389.1
19.64	5003.21
19.68	5165.77
19.72	4443.29
19.76	4316.85
19.8	5201.9
19.84	4551.66
19.88	5147.71
19.92	4967.09
19.96	4497.47
20	4876.78
20.04	4732.28
20.08	5147.71
20.12	4497.47
20.16	4533.6
20.2	4280.73
20.24	4118.17
20.28	4641.97
20.32	4371.04
20.36	4515.54
20.4	4678.1
20.44	4100.11
20.48	4696.16
20.52	4587.79
20.56	4912.9
20.6	4443.29
20.64	4443.29
20.68	4551.66
20.72	4876.78
20.76	4154.29
20.8	4208.48
20.84	4389.1
20.88	4352.98
20.92	4786.47
20.96	4172.36
21	3901.42
21.04	4461.35
21.08	5147.71
21.12	4461.35
21.16	4985.15
21.2	4750.34
21.24	4334.92
21.28	4407.16
21.32	4063.98
21.36	4027.86
21.4	4461.35
21.44	3919.49
21.48	4226.54
21.52	4316.85
21.56	4190.42
21.6	4786.47
21.64	4623.91
21.68	3991.73
21.72	4768.41
21.76	4533.6
21.8	4190.42
21.84	4569.72
21.88	3720.8
21.92	4678.1
21.96	4280.73
22	3793.05
22.04	4696.16
22.08	4063.98
22.12	4443.29
22.16	3883.36
22.2	4045.92
22.24	4298.79
22.28	4497.47
22.32	3720.8
22.36	3883.36
22.4	4316.85
22.44	3901.42
22.48	4190.42
22.52	3883.36
22.56	4262.67
22.6	4298.79
22.64	4461.35
22.68	4063.98
22.72	4027.86
22.76	3720.8
22.8	4262.67
22.84	3811.11
22.88	3937.55
22.92	4208.48
22.96	4714.22
23	4678.1
23.04	5545.08
23.08	5942.45
23.12	4894.84
23.16	4985.15
23.2	5039.34
23.24	4082.05
23.28	4063.98
23.32	3774.99
23.36	4262.67
23.4	4389.1
23.44	4551.66
23.48	4226.54
23.52	3883.36
23.56	4136.23
23.6	4118.17
23.64	3774.99
23.68	3377.62
23.72	3431.81
23.76	4172.36
23.8	3594.37
23.84	3793.05
23.88	3901.42
23.92	3612.43
23.96	3684.68
24	3955.61
24.04	4027.86
24.08	3829.18
24.12	3720.8
24.16	4082.05
24.2	3829.18
24.24	3919.49
24.28	3973.67
24.32	3504.06
24.36	3630.49
24.4	4136.23
24.44	4190.42
24.48	4118.17
24.52	4407.16
24.56	5093.53
24.6	5816.01
24.64	5960.51
24.68	5527.02
24.72	5436.71
24.76	4930.97
24.8	5201.9
24.84	4750.34
24.88	4985.15
24.92	5292.21
24.96	5183.84
25	4298.79
25.04	4063.98
25.08	3485.99
25.12	3612.43
25.16	3612.43
25.2	3233.12
25.24	3955.61
25.28	3648.55
25.32	3413.75
25.36	3540.18
25.4	2835.76
25.44	2998.32
25.48	3305.37
25.52	3215.06
25.56	2998.32
25.6	3558.24
25.64	3287.31
25.68	3215.06
25.72	3124.75
25.76	2908.01
25.8	3413.75
25.84	2926.07
25.88	3485.99
25.92	2944.13
25.96	3106.69
26	2998.32
26.04	2926.07
26.08	3142.81
26.12	2727.38
26.16	3160.88
26.2	3016.38
26.24	2926.07
26.28	2799.63
26.32	2908.01
26.36	2637.07
26.4	3178.94
26.44	2835.76
26.48	2871.88
26.52	2835.76
26.56	2962.19
26.6	2564.82
26.64	3341.5
26.68	2799.63
26.72	2311.95
26.76	2402.27
26.8	2673.2
26.84	3124.75
26.88	2962.19
26.92	2546.76
26.96	2474.51
27	2908.01
27.04	2420.33
27.08	2691.26
27.12	2528.7
27.16	2456.45
27.2	2673.2
27.24	2655.14
27.28	2059.08
27.32	2908.01
27.36	2564.82
27.4	2582.89
27.44	2474.51
27.48	2564.82
27.52	2637.07
27.56	2763.51
27.6	2799.63
27.64	2528.7
27.68	2835.76
27.72	2456.45
27.76	2456.45
27.8	2221.64
27.84	2366.14
27.88	2510.64
27.92	2438.39
27.96	2619.01
28	2655.14
28.04	2221.64
28.08	2908.01
28.12	2384.2
28.16	2041.02
28.2	2781.57
28.24	2763.51
28.28	2673.2
28.32	2185.52
28.36	2330.02
28.4	2438.39
28.44	2673.2
28.48	2474.51
28.52	2673.2
28.56	2203.58
28.6	2330.02
28.64	2528.7
28.68	2275.83
28.72	3160.88
28.76	2673.2
28.8	2619.01
28.84	3197
28.88	2691.26
28.92	3160.88
28.96	2637.07
29	2510.64
29.04	2257.77
29.08	2203.58
29.12	2113.27
29.16	2022.96
29.2	2149.4
29.24	2420.33
29.28	2131.33
29.32	2004.9
29.36	2203.58
29.4	2004.9
29.44	1860.4
29.48	2185.52
29.52	2022.96
29.56	2203.58
29.6	2330.02
29.64	2059.08
29.68	1986.84
29.72	1806.21
29.76	2041.02
29.8	2221.64
29.84	2077.15
29.88	2185.52
29.92	2330.02
29.96	2059.08
30	1932.65
30.04	2095.21
30.08	2022.96
30.12	2131.33
30.16	2149.4
30.2	2149.4
30.24	2041.02
30.28	2257.77
30.32	2149.4
30.36	1896.53
30.4	2239.71
30.44	2113.27
30.48	2185.52
30.52	2203.58
30.56	1788.15
30.6	2041.02
30.64	2221.64
30.68	2438.39
30.72	1968.77
30.76	1860.4
30.8	1986.84
30.84	1679.78
30.88	1770.09
30.92	1950.71
30.96	1986.84
31	2149.4
31.04	1860.4
31.08	1914.59
31.12	2149.4
31.16	1878.46
31.2	2149.4
31.24	2004.9
31.28	1715.9
31.32	1806.21
31.36	2041.02
31.4	2185.52
31.44	1842.34
31.48	1788.15
31.52	2131.33
31.56	1932.65
31.6	1932.65
31.64	2113.27
31.68	1932.65
31.72	1950.71
31.76	1788.15
31.8	2041.02
31.84	2041.02
31.88	2041.02
31.92	2474.51
31.96	2221.64
32	2167.46
32.04	2330.02
32.08	2185.52
32.12	1697.84
32.16	1842.34
32.2	1950.71
32.24	1968.77
32.28	1932.65
32.32	1679.78
32.36	1860.4
32.4	1968.77
32.44	1932.65
32.48	1770.09
32.52	1733.97
32.56	1625.59
32.6	1697.84
32.64	1788.15
32.68	1679.78
32.72	1968.77
32.76	1733.97
32.8	2059.08
32.84	1806.21
32.88	2131.33
32.92	2366.14
32.96	2167.46
33	2113.27
33.04	2384.2
33.08	1824.28
33.12	2149.4
33.16	2582.89
33.2	3034.44
33.24	2944.13
33.28	3558.24
33.32	3251.19
33.36	3269.25
33.4	3016.38
33.44	2600.95
33.48	2022.96
33.52	1770.09
33.56	2239.71
33.6	2077.15
33.64	1661.72
33.68	1481.1
33.72	1968.77
33.76	1878.46
33.8	1878.46
33.84	1679.78
33.88	1878.46
33.92	1950.71
33.96	1896.53
34	1589.47
34.04	1860.4
34.08	1679.78
34.12	1535.28
34.16	1932.65
34.2	1842.34
34.24	1752.03
34.28	1697.84
34.32	1607.53
34.36	1444.97
34.4	1878.46
34.44	1589.47
34.48	1914.59
34.52	1535.28
34.56	1679.78
34.6	1535.28
34.64	2041.02
34.68	1788.15
34.72	1842.34
34.76	1860.4
34.8	1860.4
34.84	1770.09
34.88	2131.33
34.92	1752.03
34.96	1354.66
35	1752.03
35.04	1679.78
35.08	1697.84
35.12	1481.1
35.16	1535.28
35.2	1697.84
35.24	1408.85
35.28	1517.22
35.32	1517.22
35.36	1517.22
35.4	2022.96
35.44	1463.03
35.48	1444.97
35.52	1517.22
35.56	1661.72
35.6	1372.72
35.64	1426.91
35.68	1336.6
35.72	1426.91
35.76	1390.79
35.8	1444.97
35.84	1535.28
35.88	1174.04
35.92	1372.72
35.96	1192.1
36	1733.97
36.04	1571.41
36.08	1264.35
36.12	1553.34
36.16	1463.03
36.2	1408.85
36.24	1481.1
36.28	1679.78
36.32	1860.4
36.36	1806.21
36.4	1643.66
36.44	1806.21
36.48	1499.16
36.52	1643.66
36.56	1390.79
36.6	1463.03
36.64	1661.72
36.68	1571.41
36.72	1354.66
36.76	1372.72
36.8	1643.66
36.84	1625.59
36.88	1119.85
36.92	1607.53
36.96	1463.03
37	1336.6
37.04	1733.97
37.08	1625.59
37.12	1571.41
37.16	1752.03
37.2	1481.1
37.24	1589.47
37.28	1444.97
37.32	1679.78
37.36	1679.78
37.4	1571.41
37.44	1752.03
37.48	1336.6
37.52	1282.41
37.56	1390.79
37.6	1246.29
37.64	1155.98
37.68	1463.03
37.72	1788.15
37.76	1336.6
37.8	1444.97
37.84	1553.34
37.88	1752.03
37.92	2131.33
37.96	1770.09
38	2095.21
38.04	2221.64
38.08	2041.02
38.12	2402.27
38.16	2059.08
38.2	2257.77
38.24	2077.15
38.28	1968.77
38.32	1950.71
38.36	1914.59
38.4	1824.28
38.44	1625.59
38.48	1607.53
38.52	1679.78
38.56	1589.47
38.6	1535.28
38.64	1390.79
38.68	1372.72
38.72	1661.72
38.76	1481.1
38.8	1625.59
38.84	1228.23
38.88	1426.91
38.92	1300.47
38.96	1643.66
39	1463.03
39.04	1354.66
39.08	1499.16
39.12	1372.72
39.16	1463.03
39.2	1300.47
39.24	1354.66
39.28	1444.97
39.32	1174.04
39.36	1354.66
39.4	1607.53
39.44	1463.03
39.48	1210.16
39.52	957.294
39.56	1300.47
39.6	1119.85
39.64	1318.54
39.68	1408.85
39.72	1625.59
39.76	1336.6
39.8	1228.23
39.84	1300.47
39.88	1372.72
39.92	1318.54
39.96	957.294
40	1499.16
40.04	1246.29
40.08	1119.85
40.12	1553.34
40.16	1408.85
40.2	1119.85
40.24	1300.47
40.28	1300.47
40.32	1246.29
40.36	957.294
40.4	1047.6
40.44	1192.1
40.48	1119.85
40.52	1192.1
40.56	1264.35
40.6	1246.29
40.64	1354.66
40.68	1408.85
40.72	1589.47
40.76	1300.47
40.8	1444.97
40.84	1300.47
40.88	1336.6
40.92	1553.34
40.96	1354.66
41	1444.97
41.04	1354.66
41.08	1372.72
41.12	1264.35
41.16	1300.47
41.2	1174.04
41.24	1192.1
41.28	1119.85
41.32	1047.6
41.36	1264.35
41.4	1155.98
41.44	1101.79
41.48	1065.67
41.52	1300.47
41.56	1192.1
41.6	1174.04
41.64	1282.41
41.68	1264.35
41.72	1228.23
41.76	1408.85
41.8	1354.66
41.84	1174.04
41.88	1119.85
41.92	1336.6
41.96	1011.48
42	1192.1
42.04	1083.73
42.08	1065.67
42.12	1228.23
42.16	1174.04
42.2	1083.73
42.24	1246.29
42.28	1318.54
42.32	1408.85
42.36	1372.72
42.4	1481.1
42.44	1426.91
42.48	1264.35
42.52	1444.97
42.56	1047.6
42.6	1174.04
42.64	1192.1
42.68	1282.41
42.72	903.107
42.76	1463.03
42.8	1372.72
42.84	1517.22
42.88	1264.35
42.92	1119.85
42.96	1155.98
43	1210.16
43.04	1463.03
43.08	1137.92
43.12	1083.73
43.16	1155.98
43.2	1426.91
43.24	1155.98
43.28	1264.35
43.32	1246.29
43.36	1155.98
43.4	1029.54
43.44	1155.98
43.48	1318.54
43.52	957.294
43.56	1192.1
43.6	1192.1
43.64	1282.41
43.68	1300.47
43.72	1228.23
43.76	1246.29
43.8	1246.29
43.84	1065.67
43.88	1083.73
43.92	1390.79
43.96	1517.22
44	1372.72
44.04	1390.79
44.08	1336.6
44.12	1264.35
44.16	1210.16
44.2	1300.47
44.24	1354.66
44.28	1444.97
44.32	1300.47
44.36	1733.97
44.4	1535.28
44.44	1372.72
44.48	1174.04
44.52	1137.92
44.56	1119.85
44.6	1083.73
44.64	1228.23
44.68	1101.79
44.72	1065.67
44.76	1210.16
44.8	957.294
44.84	1246.29
44.88	1119.85
44.92	1174.04
44.96	1192.1
45	1246.29
45.04	1155.98
45.08	1174.04
45.12	957.294
45.16	939.232
45.2	1155.98
45.24	1119.85
45.28	1228.23
45.32	1228.23
45.36	1011.48
45.4	957.294
45.44	975.356
45.48	1174.04
45.52	1029.54
45.56	1210.16
45.6	1101.79
45.64	1137.92
45.68	1083.73
45.72	1065.67
45.76	1155.98
45.8	740.548
45.84	866.983
45.88	957.294
45.92	975.356
45.96	758.61
46	1119.85
46.04	975.356
46.08	1047.6
46.12	993.418
46.16	1192.1
46.2	1228.23
46.24	993.418
46.28	1137.92
46.32	903.107
46.36	830.859
46.4	993.418
46.44	921.169
46.48	1011.48
46.52	975.356
46.56	830.859
46.6	1011.48
46.64	1444.97
46.68	1011.48
46.72	903.107
46.76	1174.04
46.8	939.232
46.84	1174.04
46.88	1426.91
46.92	1119.85
46.96	1174.04
47	921.169
47.04	1083.73
47.08	1155.98
47.12	1011.48
47.16	993.418
47.2	1047.6
47.24	1246.29
47.28	1065.67
47.32	993.418
47.36	1192.1
47.4	1228.23
47.44	1137.92
47.48	1174.04
47.52	957.294
47.56	866.983
47.6	1029.54
47.64	1119.85
47.68	921.169
47.72	794.734
47.76	1065.67
47.8	1065.67
47.84	1029.54
47.88	939.232
47.92	975.356
47.96	1210.16
48	1174.04
48.04	1228.23
48.08	903.107
48.12	758.61
48.16	1155.98
48.2	1101.79
48.24	1137.92
48.28	1011.48
48.32	1065.67
48.36	1101.79
48.4	1065.67
48.44	1011.48
48.48	1029.54
48.52	921.169
48.56	1011.48
48.6	1029.54
48.64	866.983
48.68	903.107
48.72	993.418
48.76	794.734
48.8	993.418
48.84	957.294
48.88	794.734
48.92	704.424
48.96	776.672
49	885.045
49.04	848.921
49.08	812.797
49.12	957.294
49.16	866.983
49.2	975.356
49.24	704.424
49.28	975.356
49.32	866.983
49.36	921.169
49.4	740.548
49.44	903.107
49.48	903.107
49.52	939.232
49.56	830.859
49.6	758.61
49.64	776.672
49.68	885.045
49.72	866.983
49.76	1192.1
49.8	776.672
49.84	885.045
49.88	776.672
49.92	1029.54
49.96	921.169
50	921.169
50.04	1083.73
50.08	957.294
50.12	614.113
50.16	1083.73
50.2	830.859
50.24	939.232
50.28	903.107
50.32	939.232
50.36	975.356
50.4	668.299
50.44	957.294
50.48	957.294
50.52	1174.04
50.56	939.232
50.6	866.983
50.64	1174.04
50.68	740.548
50.72	812.797
50.76	957.294
50.8	957.294
50.84	848.921
50.88	1065.67
50.92	758.61
50.96	1155.98
51	903.107
51.04	903.107
51.08	812.797
51.12	776.672
51.16	939.232
51.2	848.921
51.24	903.107
51.28	957.294
51.32	812.797
51.36	921.169
51.4	957.294
51.44	993.418
51.48	740.548
51.52	758.61
51.56	722.486
51.6	794.734
51.64	866.983
51.68	1083.73
51.72	921.169
51.76	866.983
51.8	650.237
51.84	885.045
51.88	794.734
51.92	722.486
51.96	722.486
52	614.113
52.04	975.356
52.08	830.859
52.12	975.356
52.16	957.294
52.2	704.424
52.24	885.045
52.28	704.424
52.32	957.294
52.36	776.672
52.4	451.554
52.44	903.107
52.48	866.983
52.52	668.299
52.56	848.921
52.6	758.61
52.64	632.175
52.68	740.548
52.72	722.486
52.76	758.61
52.8	957.294
52.84	848.921
52.88	632.175
52.92	794.734
52.96	794.734
53	722.486
53.04	866.983
53.08	704.424
53.12	993.418
53.16	722.486
53.2	722.486
53.24	614.113
53.28	794.734
53.32	866.983
53.36	614.113
53.4	848.921
53.44	812.797
53.48	577.989
53.52	885.045
53.56	758.61
53.6	812.797
53.64	758.61
53.68	921.169
53.72	812.797
53.76	505.74
53.8	722.486
53.84	632.175
53.88	903.107
53.92	921.169
53.96	740.548
54	704.424
54.04	632.175
54.08	794.734
54.12	1083.73
54.16	866.983
54.2	1083.73
54.24	722.486
54.28	487.678
54.32	993.418
54.36	686.362
54.4	505.74
54.44	740.548
54.48	632.175
54.52	993.418
54.56	559.927
54.6	776.672
54.64	776.672
54.68	830.859
54.72	686.362
54.76	812.797
54.8	812.797
54.84	758.61
54.88	722.486
54.92	704.424
54.96	776.672
55	487.678
55.04	758.61
55.08	722.486
55.12	686.362
55.16	993.418
55.2	686.362
55.24	596.051
55.28	758.61
55.32	848.921
55.36	903.107
55.4	722.486
55.44	830.859
55.48	758.61
55.52	758.61
55.56	650.237
55.6	758.61
55.64	957.294
55.68	668.299
55.72	903.107
55.76	848.921
55.8	812.797
55.84	740.548
55.88	523.802
55.92	758.61
55.96	848.921
56	559.927
56.04	812.797
56.08	794.734
56.12	704.424
56.16	740.548
56.2	921.169
56.24	668.299
56.28	740.548
56.32	722.486
56.36	559.927
56.4	812.797
56.44	722.486
56.48	487.678
56.52	596.051
56.56	740.548
56.6	722.486
56.64	632.175
56.68	559.927
56.72	812.797
56.76	758.61
56.8	577.989
56.84	632.175
56.88	740.548
56.92	740.548
56.96	776.672
57	505.74
57.04	830.859
57.08	523.802
57.12	686.362
57.16	632.175
57.2	704.424
57.24	885.045
57.28	740.548
57.32	614.113
57.36	776.672
57.4	523.802
57.44	614.113
57.48	668.299
57.52	523.802
57.56	740.548
57.6	740.548
57.64	830.859
57.68	559.927
57.72	415.429
57.76	686.362
57.8	577.989
57.84	650.237
57.88	505.74
57.92	632.175
57.96	632.175
58	397.367
58.04	776.672
58.08	794.734
58.12	577.989
58.16	722.486
58.2	632.175
58.24	776.672
58.28	704.424
58.32	650.237
58.36	740.548
58.4	632.175
58.44	541.864
58.48	541.864
58.52	596.051
58.56	614.113
58.6	541.864
58.64	487.678
58.68	541.864
58.72	758.61
58.76	650.237
58.8	686.362
58.84	343.181
58.88	596.051
58.92	812.797
58.96	686.362
59	523.802
59.04	505.74
59.08	523.802
59.12	614.113
59.16	577.989
59.2	577.989
59.24	614.113
59.28	614.113
59.32	632.175
59.36	614.113
59.4	577.989
59.44	505.74
59.48	758.61
59.52	650.237
59.56	523.802
59.6	704.424
59.64	577.989
59.68	794.734
59.72	758.61
59.76	758.61
59.8	848.921
59.84	614.113
59.88	740.548
59.92	740.548
59.96	812.797
60	776.672
59.96	469.616
60	361.243