File: database/experiments/MU/xrd/1102/parallel/1101/xrd/80.TXT
Sample
Comments
Filename	C:\Data\西出研\梅木\20211102オペ\LiTFSI24wt_03_0003_0079-1_C_2θ.raw
Goniometer	SmartLab(In-plane)
Attachment	標準Zステージ
Monochromater	None
X	0
Y	0
Z	0.01756
ScanningMode	2Theta
ScanningType	Continuos Scanning
X-Ray	40kV/30mA
入射スリット	0.300mm
受光スリット1	20.000mm
受光スリット2	20.000mm
None
Start	5
Stop	60
Step	0.02
Speed	21.6746
Theta	0
5	7242.92
5.04	7315.17
5.08	6484.31
5.12	7640.29
5.16	6682.99
5.2	6773.31
5.24	7531.92
5.28	6701.06
5.32	7206.8
5.36	6339.81
5.4	6664.93
5.44	6755.24
5.48	7513.85
5.52	6773.31
5.56	6845.55
5.6	6592.68
5.64	6538.5
5.68	6556.56
5.72	6953.93
5.76	6303.69
5.8	6664.93
5.84	6592.68
5.88	6809.43
5.92	6430.12
5.96	6430.12
6	6105.01
6.04	6068.88
6.08	6520.44
6.12	6267.56
6.16	6321.75
6.2	6394
6.24	6303.69
6.28	6032.76
6.32	6032.76
6.36	6448.19
6.4	6141.13
6.44	6050.82
6.48	6755.24
6.52	6231.44
6.56	6231.44
6.6	6484.31
6.64	5707.64
6.68	5978.57
6.72	6394
6.76	6701.06
6.8	6520.44
6.84	6086.94
6.88	6249.5
6.92	6032.76
6.96	5490.89
7	6448.19
7.04	5581.2
7.08	6231.44
7.12	6177.25
7.16	6068.88
7.2	6086.94
7.24	5581.2
7.28	6177.25
7.32	5346.4
7.36	6105.01
7.4	6574.62
7.44	5418.64
7.48	5978.57
7.52	6357.88
7.56	6321.75
7.6	6520.44
7.64	6303.69
7.68	6068.88
7.72	5617.33
7.76	5816.01
7.8	5382.52
7.84	6123.07
7.88	6267.56
7.92	5635.39
7.96	5563.14
8	5779.89
8.04	6068.88
8.08	5472.83
8.12	5508.95
8.16	5545.08
8.2	5364.46
8.24	5797.95
8.28	5382.52
8.32	5310.27
8.36	5816.01
8.4	5978.57
8.44	5888.26
8.48	5779.89
8.52	5508.95
8.56	5436.71
8.6	5545.08
8.64	5689.58
8.68	5454.77
8.72	6014.69
8.76	5978.57
8.8	5852.14
8.84	5888.26
8.88	5563.14
8.92	5653.45
8.96	5472.83
9	5238.02
9.04	5581.2
9.08	5508.95
9.12	5816.01
9.16	5870.2
9.2	6123.07
9.24	5743.76
9.28	5617.33
9.32	5617.33
9.36	5743.76
9.4	5346.4
9.44	5689.58
9.48	5924.38
9.52	5581.2
9.56	5021.28
9.6	6159.19
9.64	5508.95
9.68	5201.9
9.72	5545.08
9.76	5508.95
9.8	5527.02
9.84	6339.81
9.88	5490.89
9.92	5906.32
9.96	5201.9
10	5563.14
10.04	4930.97
10.08	5779.89
10.12	5653.45
10.16	6249.5
10.2	5743.76
10.24	5581.2
10.28	6032.76
10.32	5563.14
10.36	6014.69
10.4	5238.02
10.44	5671.51
10.48	5797.95
10.52	5960.51
10.56	5779.89
10.6	6592.68
10.64	5960.51
10.68	6502.37
10.72	7568.04
10.76	7712.54
10.8	6845.55
10.84	6701.06
10.88	6123.07
10.92	5653.45
10.96	5924.38
11	6068.88
11.04	5978.57
11.08	5418.64
11.12	5707.64
11.16	6213.38
11.2	5165.77
11.24	5797.95
11.28	5743.76
11.32	5906.32
11.36	5165.77
11.4	5581.2
11.44	5978.57
11.48	5527.02
11.52	6105.01
11.56	6231.44
11.6	6357.88
11.64	6105.01
11.68	5942.45
11.72	5599.27
11.76	5545.08
11.8	5256.08
11.84	6014.69
11.88	5400.58
11.92	5743.76
11.96	6068.88
12	5924.38
12.04	5256.08
12.08	6123.07
12.12	6123.07
12.16	5743.76
12.2	6159.19
12.24	5653.45
12.28	6032.76
12.32	6086.94
12.36	6032.76
12.4	5779.89
12.44	5508.95
12.48	5039.34
12.52	5797.95
12.56	5689.58
12.6	5816.01
12.64	5942.45
12.68	5671.51
12.72	5725.7
12.76	6032.76
12.8	5346.4
12.84	5653.45
12.88	5508.95
12.92	6141.13
12.96	6105.01
13	6502.37
13.04	5671.51
13.08	5852.14
13.12	5924.38
13.16	5870.2
13.2	5581.2
13.24	6195.32
13.28	6375.94
13.32	6484.31
13.36	6285.63
13.4	6105.01
13.44	6050.82
13.48	5834.07
13.52	5671.51
13.56	6502.37
13.6	6123.07
13.64	5761.82
13.68	5599.27
13.72	5761.82
13.76	6285.63
13.8	5111.59
13.84	5779.89
13.88	6050.82
13.92	5743.76
13.96	5834.07
14	6231.44
14.04	6177.25
14.08	5816.01
14.12	5996.63
14.16	5924.38
14.2	5834.07
14.24	5581.2
14.28	5310.27
14.32	5888.26
14.36	6086.94
14.4	5870.2
14.44	5635.39
14.48	6267.56
14.52	5888.26
14.56	5689.58
14.6	6159.19
14.64	5960.51
14.68	6032.76
14.72	5978.57
14.76	5274.15
14.8	6195.32
14.84	5779.89
14.88	5617.33
14.92	5563.14
14.96	5924.38
15	5779.89
15.04	5238.02
15.08	5364.46
15.12	5671.51
15.16	5292.21
15.2	5725.7
15.24	5581.2
15.28	5816.01
15.32	6303.69
15.36	6123.07
15.4	5924.38
15.44	6213.38
15.48	6321.75
15.52	5490.89
15.56	5400.58
15.6	5581.2
15.64	5147.71
15.68	5797.95
15.72	5418.64
15.76	5834.07
15.8	5996.63
15.84	5761.82
15.88	5527.02
15.92	4732.28
15.96	5310.27
16	5436.71
16.04	4732.28
16.08	5256.08
16.12	5093.53
16.16	5761.82
16.2	4949.03
16.24	5671.51
16.28	5490.89
16.32	5346.4
16.36	4696.16
16.4	5183.84
16.44	5671.51
16.48	5111.59
16.52	5201.9
16.56	5057.4
16.6	5364.46
16.64	5671.51
16.68	5039.34
16.72	5527.02
16.76	5093.53
16.8	4876.78
16.84	5075.46
16.88	5382.52
16.92	5219.96
16.96	5292.21
17	5852.14
17.04	6394
17.08	7441.6
17.12	7477.73
17.16	8218.28
17.2	6791.37
17.24	6610.75
17.28	5129.65
17.32	5147.71
17.36	5508.95
17.4	5201.9
17.44	4768.41
17.48	4750.34
17.52	5039.34
17.56	5346.4
17.6	5617.33
17.64	4569.72
17.68	4605.85
17.72	5274.15
17.76	4732.28
17.8	4894.84
17.84	4985.15
17.88	4894.84
17.92	4894.84
17.96	4533.6
18	4840.66
18.04	5057.4
18.08	5364.46
18.12	4641.97
18.16	4696.16
18.2	5129.65
18.24	5599.27
18.28	5400.58
18.32	6267.56
18.36	6014.69
18.4	5238.02
18.44	5165.77
18.48	4641.97
18.52	4985.15
18.56	4425.23
18.6	4912.9
18.64	4569.72
18.68	5183.84
18.72	5003.21
18.76	4804.53
18.8	4858.72
18.84	4949.03
18.88	5165.77
18.92	5978.57
18.96	5924.38
19	7297.11
19.04	8218.28
19.08	9699.37
19.12	10801.2
19.16	8705.96
19.2	7531.92
19.24	6303.69
19.28	5653.45
19.32	5075.46
19.36	4840.66
19.4	5581.2
19.44	5274.15
19.48	5689.58
19.52	5436.71
19.56	4768.41
19.6	5274.15
19.64	5093.53
19.68	4804.53
19.72	4551.66
19.76	4750.34
19.8	4894.84
19.84	4298.79
19.88	4371.04
19.92	4371.04
19.96	4334.92
20	4118.17
20.04	4678.1
20.08	4804.53
20.12	4750.34
20.16	4371.04
20.2	4515.54
20.24	4587.79
20.28	4840.66
20.32	4660.03
20.36	4352.98
20.4	4389.1
20.44	4533.6
20.48	4678.1
20.52	5003.21
20.56	4280.73
20.6	3973.67
20.64	4876.78
20.68	4298.79
20.72	4533.6
20.76	4443.29
20.8	4226.54
20.84	4533.6
20.88	4316.85
20.92	5003.21
20.96	4009.8
21	4696.16
21.04	4641.97
21.08	4985.15
21.12	4479.41
21.16	4352.98
21.2	4154.29
21.24	4082.05
21.28	4371.04
21.32	4154.29
21.36	4750.34
21.4	4461.35
21.44	4262.67
21.48	4082.05
21.52	4660.03
21.56	4569.72
21.6	4678.1
21.64	4949.03
21.68	5093.53
21.72	4623.91
21.76	3955.61
21.8	4136.23
21.84	4298.79
21.88	4371.04
21.92	4786.47
21.96	3973.67
22	4280.73
22.04	4009.8
22.08	4298.79
22.12	3937.55
22.16	4154.29
22.2	3865.3
22.24	4045.92
22.28	3973.67
22.32	4316.85
22.36	4009.8
22.4	4316.85
22.44	4063.98
22.48	3684.68
22.52	4569.72
22.56	3973.67
22.6	4298.79
22.64	4226.54
22.68	4118.17
22.72	4280.73
22.76	4082.05
22.8	4063.98
22.84	4334.92
22.88	4732.28
22.92	4515.54
22.96	4533.6
23	4912.9
23.04	5147.71
23.08	5545.08
23.12	4930.97
23.16	4352.98
23.2	4208.48
23.24	4371.04
23.28	4154.29
23.32	3756.93
23.36	3901.42
23.4	3973.67
23.44	3829.18
23.48	3467.93
23.52	4244.6
23.56	3630.49
23.6	3865.3
23.64	3576.31
23.68	3811.11
23.72	3359.56
23.76	3829.18
23.8	3811.11
23.84	3648.55
23.88	3774.99
23.92	3558.24
23.96	4154.29
24	3774.99
24.04	3576.31
24.08	3702.74
24.12	3467.93
24.16	3991.73
24.2	3937.55
24.24	3449.87
24.28	3901.42
24.32	3467.93
24.36	3829.18
24.4	3684.68
24.44	3829.18
24.48	4190.42
24.52	5075.46
24.56	5942.45
24.6	5581.2
24.64	5978.57
24.68	5201.9
24.72	4876.78
24.76	5328.33
24.8	5147.71
24.84	5039.34
24.88	5129.65
24.92	4949.03
24.96	4551.66
25	4063.98
25.04	3576.31
25.08	3774.99
25.12	3738.86
25.16	3359.56
25.2	3106.69
25.24	3305.37
25.28	3612.43
25.32	3576.31
25.36	2998.32
25.4	3305.37
25.44	3269.25
25.48	3197
25.52	3377.62
25.56	3467.93
25.6	3178.94
25.64	3215.06
25.68	2745.45
25.72	2889.94
25.76	2889.94
25.8	2908.01
25.84	2727.38
25.88	2926.07
25.92	3233.12
25.96	2889.94
26	3269.25
26.04	3034.44
26.08	3088.63
26.12	2673.2
26.16	2817.69
26.2	2926.07
26.24	2745.45
26.28	2781.57
26.32	3016.38
26.36	2926.07
26.4	3323.44
26.44	2546.76
26.48	2456.45
26.52	2871.88
26.56	3016.38
26.6	2781.57
26.64	2889.94
26.68	3034.44
26.72	2835.76
26.76	2962.19
26.8	2908.01
26.84	3088.63
26.88	2763.51
26.92	2637.07
26.96	2293.89
27	2293.89
27.04	2709.32
27.08	2655.14
27.12	3160.88
27.16	2619.01
27.2	2655.14
27.24	2474.51
27.28	2474.51
27.32	2582.89
27.36	2564.82
27.4	2600.95
27.44	2420.33
27.48	2673.2
27.52	2763.51
27.56	2799.63
27.6	2691.26
27.64	2438.39
27.68	2691.26
27.72	2167.46
27.76	2582.89
27.8	2600.95
27.84	2600.95
27.88	2637.07
27.92	2564.82
27.96	2185.52
28	2600.95
28.04	2257.77
28.08	2366.14
28.12	2546.76
28.16	2348.08
28.2	2564.82
28.24	2745.45
28.28	2619.01
28.32	2438.39
28.36	2582.89
28.4	2022.96
28.44	2438.39
28.48	2275.83
28.52	2600.95
28.56	2474.51
28.6	2456.45
28.64	2546.76
28.68	2637.07
28.72	2926.07
28.76	2745.45
28.8	2889.94
28.84	2908.01
28.88	2691.26
28.92	2582.89
28.96	2420.33
29	2600.95
29.04	2167.46
29.08	2420.33
29.12	2077.15
29.16	2456.45
29.2	1950.71
29.24	2131.33
29.28	2564.82
29.32	2221.64
29.36	1950.71
29.4	2366.14
29.44	2366.14
29.48	2131.33
29.52	2673.2
29.56	2239.71
29.6	1643.66
29.64	1896.53
29.68	2311.95
29.72	2203.58
29.76	2149.4
29.8	1932.65
29.84	2492.58
29.88	2022.96
29.92	2077.15
29.96	1950.71
30	2095.21
30.04	1968.77
30.08	2022.96
30.12	2275.83
30.16	2095.21
30.2	2330.02
30.24	2239.71
30.28	2004.9
30.32	1986.84
30.36	2131.33
30.4	2113.27
30.44	1878.46
30.48	2059.08
30.52	2059.08
30.56	1878.46
30.6	1932.65
30.64	1697.84
30.68	2564.82
30.72	2167.46
30.76	1770.09
30.8	1643.66
30.84	1896.53
30.88	2059.08
30.92	2203.58
30.96	2041.02
31	2059.08
31.04	2041.02
31.08	1697.84
31.12	1643.66
31.16	2004.9
31.2	1896.53
31.24	2149.4
31.28	1752.03
31.32	1860.4
31.36	1824.28
31.4	1860.4
31.44	1896.53
31.48	1914.59
31.52	2041.02
31.56	1589.47
31.6	2022.96
31.64	2203.58
31.68	2077.15
31.72	2004.9
31.76	2041.02
31.8	2004.9
31.84	2366.14
31.88	2402.27
31.92	2113.27
31.96	2041.02
32	2131.33
32.04	1788.15
32.08	1752.03
32.12	1986.84
32.16	2113.27
32.2	1806.21
32.24	2041.02
32.28	1661.72
32.32	1950.71
32.36	2004.9
32.4	2022.96
32.44	1697.84
32.48	2059.08
32.52	2041.02
32.56	1986.84
32.6	1860.4
32.64	1950.71
32.68	2113.27
32.72	1661.72
32.76	2221.64
32.8	1752.03
32.84	2257.77
32.88	2149.4
32.92	2095.21
32.96	2185.52
33	2366.14
33.04	2185.52
33.08	2763.51
33.12	2691.26
33.16	3233.12
33.2	2998.32
33.24	3251.19
33.28	3431.81
33.32	2745.45
33.36	2564.82
33.4	2366.14
33.44	2438.39
33.48	2077.15
33.52	2113.27
33.56	2221.64
33.6	1824.28
33.64	1752.03
33.68	1932.65
33.72	1679.78
33.76	1679.78
33.8	1733.97
33.84	1842.34
33.88	1715.9
33.92	1679.78
33.96	1517.22
34	1878.46
34.04	1860.4
34.08	1914.59
34.12	1968.77
34.16	1806.21
34.2	1715.9
34.24	1752.03
34.28	1535.28
34.32	1643.66
34.36	1752.03
34.4	1589.47
34.44	1463.03
34.48	1770.09
34.52	1806.21
34.56	1625.59
34.6	1571.41
34.64	1625.59
34.68	1733.97
34.72	1589.47
34.76	1878.46
34.8	1968.77
34.84	1788.15
34.88	1589.47
34.92	1752.03
34.96	1914.59
35	1806.21
35.04	1571.41
35.08	1444.97
35.12	1336.6
35.16	1444.97
35.2	1950.71
35.24	1878.46
35.28	1589.47
35.32	1679.78
35.36	1444.97
35.4	1770.09
35.44	1499.16
35.48	1625.59
35.52	1715.9
35.56	1372.72
35.6	1661.72
35.64	1426.91
35.68	1390.79
35.72	1661.72
35.76	1553.34
35.8	1481.1
35.84	1553.34
35.88	1408.85
35.92	1535.28
35.96	1733.97
36	1643.66
36.04	1426.91
36.08	1607.53
36.12	1571.41
36.16	1986.84
36.2	1517.22
36.24	1535.28
36.28	1788.15
36.32	1896.53
36.36	1824.28
36.4	1788.15
36.44	1607.53
36.48	1372.72
36.52	1426.91
36.56	1553.34
36.6	1463.03
36.64	1174.04
36.68	1481.1
36.72	1390.79
36.76	1264.35
36.8	1643.66
36.84	1643.66
36.88	1372.72
36.92	1697.84
36.96	1752.03
37	1770.09
37.04	1788.15
37.08	1589.47
37.12	1679.78
37.16	1499.16
37.2	1824.28
37.24	1643.66
37.28	1318.54
37.32	1426.91
37.36	1571.41
37.4	1517.22
37.44	1318.54
37.48	1336.6
37.52	1571.41
37.56	1318.54
37.6	1535.28
37.64	1517.22
37.68	1390.79
37.72	1661.72
37.76	1715.9
37.8	1788.15
37.84	2004.9
37.88	1842.34
37.92	2239.71
37.96	2330.02
38	2619.01
38.04	2420.33
38.08	2384.2
38.12	2022.96
38.16	1986.84
38.2	1950.71
38.24	2041.02
38.28	1842.34
38.32	1806.21
38.36	1842.34
38.4	1697.84
38.44	1625.59
38.48	1444.97
38.52	1463.03
38.56	1318.54
38.6	1119.85
38.64	1553.34
38.68	1228.23
38.72	1318.54
38.76	1228.23
38.8	1137.92
38.84	1715.9
38.88	1336.6
38.92	1535.28
38.96	1553.34
39	1589.47
39.04	1210.16
39.08	1300.47
39.12	1300.47
39.16	1300.47
39.2	1661.72
39.24	1336.6
39.28	1246.29
39.32	1426.91
39.36	1300.47
39.4	1282.41
39.44	1119.85
39.48	1228.23
39.52	993.418
39.56	1499.16
39.6	1210.16
39.64	1246.29
39.68	1282.41
39.72	1499.16
39.76	1300.47
39.8	1408.85
39.84	1336.6
39.88	1264.35
39.92	1354.66
39.96	1210.16
40	1553.34
40.04	1372.72
40.08	1246.29
40.12	1210.16
40.16	1083.73
40.2	1065.67
40.24	1372.72
40.28	1228.23
40.32	1499.16
40.36	1083.73
40.4	1481.1
40.44	1192.1
40.48	1499.16
40.52	1481.1
40.56	1210.16
40.6	1535.28
40.64	1246.29
40.68	1770.09
40.72	1210.16
40.76	1336.6
40.8	1228.23
40.84	1300.47
40.88	1354.66
40.92	1535.28
40.96	1300.47
41	1553.34
41.04	1155.98
41.08	1318.54
41.12	1210.16
41.16	1264.35
41.2	1499.16
41.24	1228.23
41.28	1390.79
41.32	1372.72
41.36	1372.72
41.4	975.356
41.44	1174.04
41.48	1444.97
41.52	1426.91
41.56	993.418
41.6	1083.73
41.64	1282.41
41.68	1047.6
41.72	1444.97
41.76	1029.54
41.8	1192.1
41.84	1282.41
41.88	1029.54
41.92	1192.1
41.96	1119.85
42	1083.73
42.04	1408.85
42.08	1101.79
42.12	1607.53
42.16	1246.29
42.2	1155.98
42.24	1499.16
42.28	1210.16
42.32	1426.91
42.36	1264.35
42.4	1101.79
42.44	1390.79
42.48	957.294
42.52	1408.85
42.56	1318.54
42.6	1192.1
42.64	1264.35
42.68	1354.66
42.72	1372.72
42.76	1246.29
42.8	1444.97
42.84	1246.29
42.88	1137.92
42.92	1553.34
42.96	1426.91
43	1192.1
43.04	1192.1
43.08	1426.91
43.12	1155.98
43.16	1119.85
43.2	1083.73
43.24	957.294
43.28	1210.16
43.32	975.356
43.36	1228.23
43.4	1119.85
43.44	1029.54
43.48	1155.98
43.52	1354.66
43.56	1354.66
43.6	1463.03
43.64	1101.79
43.68	1300.47
43.72	1228.23
43.76	1282.41
43.8	1101.79
43.84	1463.03
43.88	1408.85
43.92	1517.22
43.96	1390.79
44	1354.66
44.04	1246.29
44.08	1643.66
44.12	1155.98
44.16	1336.6
44.2	1300.47
44.24	1282.41
44.28	1426.91
44.32	1137.92
44.36	1444.97
44.4	1607.53
44.44	1119.85
44.48	1119.85
44.52	1011.48
44.56	1264.35
44.6	1174.04
44.64	1011.48
44.68	1065.67
44.72	1065.67
44.76	1210.16
44.8	1065.67
44.84	939.232
44.88	1083.73
44.92	975.356
44.96	1137.92
45	1282.41
45.04	1372.72
45.08	1390.79
45.12	1029.54
45.16	1029.54
45.2	1210.16
45.24	903.107
45.28	866.983
45.32	1192.1
45.36	1336.6
45.4	1029.54
45.44	1192.1
45.48	1065.67
45.52	1155.98
45.56	1083.73
45.6	993.418
45.64	1137.92
45.68	1065.67
45.72	1137.92
45.76	939.232
45.8	975.356
45.84	1192.1
45.88	1264.35
45.92	957.294
45.96	1137.92
46	1011.48
46.04	1119.85
46.08	1065.67
46.12	939.232
46.16	1011.48
46.2	1011.48
46.24	885.045
46.28	848.921
46.32	1174.04
46.36	1029.54
46.4	830.859
46.44	1155.98
46.48	1137.92
46.52	1210.16
46.56	957.294
46.6	1300.47
46.64	1228.23
46.68	1318.54
46.72	1119.85
46.76	1065.67
46.8	1101.79
46.84	812.797
46.88	921.169
46.92	1065.67
46.96	830.859
47	975.356
47.04	993.418
47.08	812.797
47.12	1155.98
47.16	1137.92
47.2	1264.35
47.24	1192.1
47.28	1029.54
47.32	1029.54
47.36	1047.6
47.4	1155.98
47.44	903.107
47.48	1083.73
47.52	1228.23
47.56	903.107
47.6	957.294
47.64	776.672
47.68	939.232
47.72	1137.92
47.76	885.045
47.8	1119.85
47.84	921.169
47.88	1047.6
47.92	866.983
47.96	812.797
48	1192.1
48.04	1174.04
48.08	921.169
48.12	1029.54
48.16	957.294
48.2	830.859
48.24	1047.6
48.28	1119.85
48.32	1174.04
48.36	1011.48
48.4	1065.67
48.44	885.045
48.48	1029.54
48.52	903.107
48.56	1029.54
48.6	939.232
48.64	632.175
48.68	668.299
48.72	1047.6
48.76	993.418
48.8	993.418
48.84	830.859
48.88	1119.85
48.92	758.61
48.96	939.232
49	758.61
49.04	993.418
49.08	686.362
49.12	866.983
49.16	776.672
49.2	686.362
49.24	1137.92
49.28	722.486
49.32	921.169
49.36	885.045
49.4	993.418
49.44	758.61
49.48	668.299
49.52	812.797
49.56	885.045
49.6	921.169
49.64	1047.6
49.68	939.232
49.72	1137.92
49.76	794.734
49.8	921.169
49.84	1011.48
49.88	794.734
49.92	830.859
49.96	758.61
50	830.859
50.04	848.921
50.08	848.921
50.12	1047.6
50.16	758.61
50.2	848.921
50.24	758.61
50.28	794.734
50.32	993.418
50.36	1029.54
50.4	993.418
50.44	885.045
50.48	1137.92
50.52	975.356
50.56	975.356
50.6	1029.54
50.64	921.169
50.68	812.797
50.72	758.61
50.76	939.232
50.8	939.232
50.84	812.797
50.88	939.232
50.92	957.294
50.96	885.045
51	1029.54
51.04	722.486
51.08	830.859
51.12	794.734
51.16	957.294
51.2	866.983
51.24	794.734
51.28	794.734
51.32	921.169
51.36	1029.54
51.4	632.175
51.44	957.294
51.48	921.169
51.52	866.983
51.56	812.797
51.6	921.169
51.64	939.232
51.68	1065.67
51.72	794.734
51.76	668.299
51.8	668.299
51.84	848.921
51.88	758.61
51.92	794.734
51.96	704.424
52	686.362
52.04	812.797
52.08	848.921
52.12	885.045
52.16	975.356
52.2	830.859
52.24	505.74
52.28	722.486
52.32	848.921
52.36	1029.54
52.4	722.486
52.44	686.362
52.48	686.362
52.52	614.113
52.56	776.672
52.6	704.424
52.64	740.548
52.68	830.859
52.72	559.927
52.76	812.797
52.8	704.424
52.84	740.548
52.88	614.113
52.92	686.362
52.96	848.921
53	686.362
53.04	794.734
53.08	632.175
53.12	704.424
53.16	866.983
53.2	758.61
53.24	794.734
53.28	559.927
53.32	704.424
53.36	794.734
53.4	704.424
53.44	758.61
53.48	614.113
53.52	812.797
53.56	722.486
53.6	812.797
53.64	993.418
53.68	848.921
53.72	668.299
53.76	758.61
53.8	885.045
53.84	812.797
53.88	812.797
53.92	830.859
53.96	885.045
54	993.418
54.04	668.299
54.08	1065.67
54.12	866.983
54.16	614.113
54.2	722.486
54.24	722.486
54.28	704.424
54.32	686.362
54.36	722.486
54.4	740.548
54.44	812.797
54.48	686.362
54.52	523.802
54.56	722.486
54.6	740.548
54.64	415.429
54.68	776.672
54.72	722.486
54.76	776.672
54.8	812.797
54.84	776.672
54.88	848.921
54.92	722.486
54.96	848.921
55	848.921
55.04	975.356
55.08	740.548
55.12	722.486
55.16	993.418
55.2	794.734
55.24	939.232
55.28	614.113
55.32	903.107
55.36	866.983
55.4	686.362
55.44	885.045
55.48	758.61
55.52	885.045
55.56	812.797
55.6	993.418
55.64	758.61
55.68	740.548
55.72	830.859
55.76	722.486
55.8	614.113
55.84	686.362
55.88	740.548
55.92	614.113
55.96	776.672
56	686.362
56.04	632.175
56.08	758.61
56.12	776.672
56.16	523.802
56.2	740.548
56.24	722.486
56.28	776.672
56.32	686.362
56.36	794.734
56.4	596.051
56.44	794.734
56.48	596.051
56.52	866.983
56.56	758.61
56.6	686.362
56.64	794.734
56.68	668.299
56.72	523.802
56.76	541.864
56.8	686.362
56.84	487.678
56.88	668.299
56.92	830.859
56.96	397.367
57	541.864
57.04	668.299
57.08	614.113
57.12	686.362
57.16	650.237
57.2	668.299
57.24	776.672
57.28	614.113
57.32	668.299
57.36	596.051
57.4	596.051
57.44	758.61
57.48	632.175
57.52	722.486
57.56	505.74
57.6	596.051
57.64	559.927
57.68	758.61
57.72	614.113
57.76	632.175
57.8	614.113
57.84	740.548
57.88	686.362
57.92	686.362
57.96	794.734
58	776.672
58.04	361.243
58.08	704.424
58.12	866.983
58.16	469.616
58.2	668.299
58.24	577.989
58.28	740.548
58.32	866.983
58.36	776.672
58.4	686.362
58.44	577.989
58.48	632.175
58.52	650.237
58.56	758.61
58.6	632.175
58.64	758.61
58.68	650.237
58.72	758.61
58.76	668.299
58.8	668.299
58.84	577.989
58.88	559.927
58.92	559.927
58.96	469.616
59	686.362
59.04	523.802
59.08	397.367
59.12	433.492
59.16	559.927
59.2	740.548
59.24	650.237
59.28	686.362
59.32	939.232
59.36	577.989
59.4	577.989
59.44	541.864
59.48	523.802
59.52	722.486
59.56	758.61
59.6	740.548
59.64	650.237
59.68	722.486
59.72	939.232
59.76	686.362
59.8	776.672
59.84	722.486
59.88	650.237
59.92	740.548
59.96	740.548
60	794.734
59.96	379.305
60	505.74