File: database/experiments/MU/xrd/1102/intensive/1101/xrd.TXT
Sample
Comments
Filename	C:\Data\西出研\梅木\20211102オペ\ベッセル\LiTFSI24_2θ_θ.raw
Goniometer	SmartLab(In-plane)
Attachment	Zステージ単独
Monochromater	None
X	0
Y	0
Z	0.07744
ScanningMode	2Theta/Theta
ScanningType	Continuos Scanning
X-Ray	40kV/30mA
入射スリット	2/3deg
受光スリット1	20.000mm
受光スリット2	20.000mm
Cu_K-beta
Start	5
Stop	60
Step	0.02
Speed	21.6746
Offset	0
5	47340.9
5.04	45336
5.08	44161.9
5.12	42319.6
5.16	39483.9
5.2	38815.6
5.24	37280.3
5.28	36232.7
5.32	32782.8
5.36	33017.6
5.4	30543.1
5.44	29694.2
5.48	30001.2
5.52	28754.9
5.56	28736.9
5.6	27562.8
5.64	28917.5
5.68	27382.2
5.72	25738.6
5.76	26551.4
5.8	25648.2
5.84	25052.2
5.88	26352.7
5.92	26424.9
5.96	26352.7
6	25594.1
6.04	25521.8
6.08	26894.5
6.12	24456.1
6.16	26948.7
6.2	25594.1
6.24	26208.2
6.28	25449.6
6.32	26424.9
6.36	25088.3
6.4	24510.3
6.44	25901.1
6.48	25088.3
6.52	26190.1
6.56	25413.4
6.6	24961.9
6.64	24600.6
6.68	24564.5
6.72	25557.9
6.76	24004.6
6.8	24998
6.84	25901.1
6.88	24257.5
6.92	24799.3
6.96	25268.9
7	25088.3
7.04	24420
7.08	24907.7
7.12	25395.4
7.16	25250.9
7.2	24871.6
7.24	24402
7.28	25557.9
7.32	25774.7
7.36	25178.6
7.4	25521.8
7.44	24618.7
7.48	25160.6
7.52	25016.1
7.56	23968.5
7.6	24817.4
7.64	24203.3
7.68	24528.4
7.72	24149.1
7.76	24492.3
7.8	24618.7
7.84	25287
7.88	24438.1
7.92	24420
7.96	23589.2
8	25865
8.04	23661.4
8.08	24691
8.12	25774.7
8.16	24329.7
8.2	24492.3
8.24	24474.2
8.28	24076.8
8.32	24709
8.36	24239.4
8.4	24564.5
8.44	25214.8
8.48	23571.1
8.52	23950.4
8.56	24456.1
8.6	24456.1
8.64	24492.3
8.68	24022.7
8.72	23408.5
8.76	24113
8.8	23950.4
8.84	24474.2
8.88	24943.8
8.92	24907.7
8.96	25666.3
9	22613.8
9.04	23896.2
9.08	24871.6
9.12	24149.1
9.16	23354.4
9.2	23769.8
9.24	23191.8
9.28	23914.3
9.32	23914.3
9.36	24474.2
9.4	23462.7
9.44	24257.5
9.48	24365.8
9.52	23733.7
9.56	23878.2
9.6	24311.7
9.64	23751.7
9.68	24185.2
9.72	23264
9.76	25359.3
9.8	23824
9.84	24004.6
9.88	23950.4
9.92	25359.3
9.96	23155.7
10	24871.6
10.04	23733.7
10.08	23137.6
10.12	24420
10.16	24311.7
10.2	23751.7
10.24	22866.7
10.28	23733.7
10.32	24094.9
10.36	24076.8
10.4	25305.1
10.44	24203.3
10.48	24998
10.52	24022.7
10.56	26479.1
10.6	25052.2
10.64	25503.8
10.68	26424.9
10.72	27039
10.76	25937.2
10.8	26750
10.84	27201.6
10.88	26912.6
10.92	25377.3
10.96	24709
11	25016.1
11.04	24564.5
11.08	23986.5
11.12	24329.7
11.16	23787.8
11.2	25088.3
11.24	24365.8
11.28	24979.9
11.32	25323.1
11.36	23932.3
11.4	25052.2
11.44	24293.6
11.48	23625.3
11.52	25106.4
11.56	24347.8
11.6	24943.8
11.64	24040.7
11.68	24745.1
11.72	24907.7
11.76	24528.4
11.8	23733.7
11.84	25160.6
11.88	24040.7
11.92	25196.7
11.96	24998
12	24022.7
12.04	25034.1
12.08	24745.1
12.12	24943.8
12.16	24727.1
12.2	24672.9
12.24	25666.3
12.28	25052.2
12.32	25178.6
12.36	24835.5
12.4	24709
12.44	24925.8
12.48	25467.6
12.52	24727.1
12.56	24727.1
12.6	24492.3
12.64	23932.3
12.68	25178.6
12.72	25142.5
12.76	25648.2
12.8	25503.8
12.84	26298.5
12.88	25666.3
12.92	25648.2
12.96	26298.5
13	25016.1
13.04	25178.6
13.08	24889.6
13.12	26226.2
13.16	25106.4
13.2	25901.1
13.24	26533.3
13.28	25467.6
13.32	26677.8
13.36	25594.1
13.4	26280.4
13.44	24257.5
13.48	25883.1
13.52	24998
13.56	26533.3
13.6	25052.2
13.64	25648.2
13.68	24799.3
13.72	25973.4
13.76	26587.5
13.8	26533.3
13.84	26099.8
13.88	25883.1
13.92	25250.9
13.96	26027.6
14	25214.8
14.04	25539.9
14.08	24925.8
14.12	26352.7
14.16	26334.6
14.2	26027.6
14.24	25431.5
14.28	25702.4
14.32	25467.6
14.36	25395.4
14.4	25395.4
14.44	25178.6
14.48	27671.2
14.52	26388.8
14.56	25684.4
14.6	25088.3
14.64	24456.1
14.68	27346.1
14.72	25034.1
14.76	24889.6
14.8	26388.8
14.84	25883.1
14.88	25973.4
14.92	27093.2
14.96	25594.1
15	26117.9
15.04	24871.6
15.08	25774.7
15.12	26388.8
15.16	25034.1
15.2	24546.5
15.24	25901.1
15.28	25250.9
15.32	25810.8
15.36	25232.8
15.4	24889.6
15.44	24871.6
15.48	26713.9
15.52	26154
15.56	25449.6
15.6	25341.2
15.64	25720.5
15.68	24474.2
15.72	25594.1
15.76	25973.4
15.8	25539.9
15.84	24456.1
15.88	26334.6
15.92	25431.5
15.96	25160.6
16	24799.3
16.04	24420
16.08	24799.3
16.12	23914.3
16.16	25034.1
16.2	25250.9
16.24	24925.8
16.28	24203.3
16.32	24347.8
16.36	25557.9
16.4	24618.7
16.44	24961.9
16.48	23589.2
16.52	24745.1
16.56	24745.1
16.6	25449.6
16.64	24618.7
16.68	25612.1
16.72	25901.1
16.76	23083.4
16.8	25034.1
16.84	25232.8
16.88	24907.7
16.92	26117.9
16.96	26677.8
17	26677.8
17.04	29730.3
17.08	31012.7
17.12	31608.8
17.16	32746.7
17.2	31428.1
17.24	28520.1
17.28	26190.1
17.32	26172.1
17.36	24383.9
17.4	23318.2
17.44	23661.4
17.48	23516.9
17.52	23227.9
17.56	24907.7
17.6	23480.8
17.64	23119.5
17.68	23209.9
17.72	24618.7
17.76	23914.3
17.8	23209.9
17.84	22776.4
17.88	23047.3
17.92	22722.2
17.96	22902.8
18	23715.6
18.04	23047.3
18.08	23354.4
18.12	24456.1
18.16	23896.2
18.2	24853.5
18.24	25521.8
18.28	27183.5
18.32	26677.8
18.36	26912.6
18.4	25648.2
18.44	25539.9
18.48	23300.2
18.52	22270.6
18.56	24113
18.6	22433.2
18.64	22830.6
18.68	23029.2
18.72	23444.7
18.76	24004.6
18.8	23571.1
18.84	25214.8
18.88	26966.8
18.92	28303.4
18.96	30687.6
19	34137.5
19.04	36846.8
19.08	37804.1
19.12	36359.1
19.16	34191.6
19.2	32782.8
19.24	26551.4
19.28	24817.4
19.32	23950.4
19.36	24582.6
19.4	24474.2
19.44	23643.3
19.48	24058.8
19.52	24131
19.56	23787.8
19.6	21927.4
19.64	22162.3
19.68	21855.2
19.72	21999.7
19.76	21891.3
19.8	21439.8
19.84	21674.6
19.88	21096.6
19.92	21909.4
19.96	20103.2
20	19976.7
20.04	21963.6
20.08	21584.3
20.12	21819.1
20.16	19236.2
20.2	21512
20.24	21367.5
20.28	20753.4
20.32	20356
20.36	21223
20.4	21078.5
20.44	22053.9
20.48	21186.9
20.52	21421.7
20.56	20608.9
20.6	19326.5
20.64	20735.3
20.68	21349.5
20.72	20301.9
20.76	21403.6
20.8	20861.8
20.84	19163.9
20.88	20753.4
20.92	20500.5
20.96	19380.7
21	21530.1
21.04	20410.2
21.08	20518.6
21.12	20608.9
21.16	21421.7
21.2	20554.7
21.24	20446.3
21.28	20572.8
21.32	20771.5
21.36	20428.3
21.4	20735.3
21.44	20464.4
21.48	20916
21.52	21945.5
21.56	20139.3
21.6	20934
21.64	20518.6
21.68	21457.8
21.72	21295.3
21.76	20590.8
21.8	20301.9
21.84	20265.7
21.88	19326.5
21.92	19814.2
21.96	20265.7
22	20265.7
22.04	19850.3
22.08	20139.3
22.12	19940.6
22.16	19109.8
22.2	20536.7
22.24	19669.7
22.28	19290.4
22.32	19344.6
22.36	20374.1
22.4	20356
22.44	19416.8
22.48	19615.5
22.52	20608.9
22.56	19236.2
22.6	19236.2
22.64	19543.2
22.68	19489.1
22.72	20049
22.76	19633.6
22.8	20283.8
22.84	20789.5
22.88	22071.9
22.92	23209.9
22.96	23209.9
23	23968.5
23.04	24925.8
23.08	24474.2
23.12	23227.9
23.16	22758.3
23.2	21909.4
23.24	21475.9
23.28	20681.2
23.32	19868.4
23.36	19398.7
23.4	19452.9
23.44	20085.1
23.48	18983.3
23.52	18856.9
23.56	20012.9
23.6	18929.1
23.64	19109.8
23.68	19994.8
23.72	19073.6
23.76	18730.4
23.8	18874.9
23.84	19380.7
23.88	19471
23.92	18531.8
23.96	19019.4
24	18712.4
24.04	18820.8
24.08	18874.9
24.12	19308.4
24.16	18838.8
24.2	18802.7
24.24	19326.5
24.28	19597.4
24.32	20103.2
24.36	20265.7
24.4	20247.7
24.44	22649.9
24.48	23751.7
24.52	25594.1
24.56	25521.8
24.6	27255.8
24.64	26262.4
24.68	25828.9
24.72	25630.2
24.76	26063.7
24.8	24925.8
24.84	24961.9
24.88	25160.6
24.92	24889.6
24.96	22938.9
25	21674.6
25.04	21909.4
25.08	20916
25.12	19597.4
25.16	18820.8
25.2	19019.4
25.24	18712.4
25.28	18459.5
25.32	17989.9
25.36	17592.5
25.4	18278.9
25.44	17321.6
25.48	16689.4
25.52	17032.6
25.56	16996.5
25.6	17411.9
25.64	17159
25.68	17357.7
25.72	15425.1
25.76	16617.2
25.8	16526.9
25.84	17068.7
25.88	16183.7
25.92	16526.9
25.96	17141
26	16563
26.04	17303.5
26.08	16346.2
26.12	16689.4
26.16	16219.8
26.2	15244.5
26.24	15677.9
26.28	15768.3
26.32	14720.6
26.36	15623.8
26.4	16274
26.44	16111.4
26.48	16274
26.52	16183.7
26.56	15930.8
26.6	15479.3
26.64	16075.3
26.68	15677.9
26.72	16039.2
26.76	15659.9
26.8	15262.5
26.84	14829
26.88	15623.8
26.92	15479.3
26.96	15154.1
27	16274
27.04	15659.9
27.08	14865.1
27.12	15045.8
27.16	14413.6
27.2	15443.1
27.24	14847.1
27.28	14684.5
27.32	15208.3
27.36	15027.7
27.4	14431.7
27.44	16057.2
27.48	14684.5
27.52	14612.3
27.56	13907.9
27.6	14413.6
27.64	14774.8
27.68	14467.8
27.72	14811
27.76	14160.7
27.8	15334.8
27.84	14413.6
27.88	13925.9
27.92	14413.6
27.96	15045.8
28	13781.4
28.04	13673
28.08	14341.3
28.12	14666.5
28.16	13564.7
28.2	13275.7
28.24	15388.9
28.28	14359.4
28.32	15172.2
28.36	14106.5
28.4	14214.9
28.44	14269.1
28.48	14016.2
28.52	14847.1
28.56	15027.7
28.6	14269.1
28.64	14883.2
28.68	15461.2
28.72	16255.9
28.76	15786.3
28.8	16183.7
28.84	16129.5
28.88	16671.4
28.92	15948.9
28.96	14522
29	15280.6
29.04	14973.5
29.08	13889.8
29.12	14630.3
29.16	13889.8
29.2	14016.2
29.24	13889.8
29.28	13528.5
29.32	13781.4
29.36	13781.4
29.4	13907.9
29.44	14594.2
29.48	13980.1
29.52	13384.1
29.56	13546.6
29.6	12625.4
29.64	13185.4
29.68	14251
29.72	13618.9
29.76	13167.3
29.8	13582.7
29.84	13095.1
29.88	13492.4
29.92	13347.9
29.96	12842.2
30	13239.6
30.04	13384.1
30.08	13528.5
30.12	13004.7
30.16	12426.8
30.2	13438.2
30.24	12733.8
30.28	12950.6
30.32	13546.6
30.36	13058.9
30.4	13257.6
30.44	13347.9
30.48	13582.7
30.52	12607.4
30.56	11921
30.6	12968.6
30.64	12842.2
30.68	12553.2
30.72	12788
30.76	13293.7
30.8	12607.4
30.84	12607.4
30.88	12968.6
30.92	13004.7
30.96	13077
31	12210
31.04	13004.7
31.08	12517.1
31.12	12950.6
31.16	12643.5
31.2	12480.9
31.24	12228.1
31.28	13185.4
31.32	12824.1
31.36	12480.9
31.4	12788
31.44	12589.3
31.48	12246.1
31.52	12661.6
31.56	13817.5
31.6	13149.2
31.64	12444.8
31.68	13347.9
31.72	13113.1
31.76	12589.3
31.8	13293.7
31.84	13962
31.88	14233
31.92	14377.5
31.96	14485.8
32	14395.5
32.04	13347.9
32.08	12769.9
32.12	13040.9
32.16	12968.6
32.2	12589.3
32.24	12408.7
32.28	12047.5
32.32	11776.5
32.36	12191.9
32.4	11921
32.44	12282.3
32.48	11975.2
32.52	12083.6
32.56	11397.2
32.6	12282.3
32.64	12499
32.68	12336.4
32.72	12661.6
32.76	12155.8
32.8	12480.9
32.84	13077
32.88	13727.2
32.92	13781.4
32.96	13817.5
33	13329.9
33.04	13618.9
33.08	14558.1
33.12	15569.6
33.16	16671.4
33.2	16382.4
33.24	18278.9
33.28	18784.6
33.32	17682.8
33.36	16797.8
33.4	16219.8
33.44	15930.8
33.48	13582.7
33.52	14666.5
33.56	12607.4
33.6	12806.1
33.64	12769.9
33.68	12336.4
33.72	11830.7
33.76	11469.5
33.8	11830.7
33.84	12300.3
33.88	10981.8
33.92	11758.5
33.96	11794.6
34	12697.7
34.04	12011.3
34.08	12679.6
34.12	12137.8
34.16	12083.6
34.2	12426.8
34.24	11577.8
34.28	11686.2
34.32	12390.6
34.36	11559.8
34.4	10602.5
34.44	10891.5
34.48	11577.8
34.52	10710.9
34.56	12119.7
34.6	11614
34.64	11993.3
34.68	12173.9
34.72	12372.6
34.76	11270.8
34.8	13329.9
34.84	11866.8
34.88	11577.8
34.92	11126.3
34.96	11017.9
35	11198.5
35.04	10819.2
35.08	10620.5
35.12	10548.3
35.16	11036
35.2	10909.5
35.24	10060.6
35.28	10963.7
35.32	9771.62
35.36	10114.8
35.4	10295.4
35.44	10349.6
35.48	10476
35.52	11234.7
35.56	10259.3
35.6	10765
35.64	10530.2
35.68	10656.7
35.72	10512.2
35.76	10566.4
35.8	10367.7
35.84	10710.9
35.88	10024.5
35.92	10945.7
35.96	10096.7
36	10331.5
36.04	11234.7
36.08	10620.5
36.12	10494.1
36.16	11270.8
36.2	10819.2
36.24	11054
36.28	11848.8
36.32	10747
36.36	10981.8
36.4	11216.6
36.44	11325
36.48	11036
36.52	10096.7
36.56	10241.2
36.6	10458
36.64	10584.4
36.68	11288.8
36.72	10873.4
36.76	10385.7
36.8	10421.9
36.84	10692.8
36.88	10458
36.92	9970.3
36.96	10620.5
37	10638.6
37.04	10530.2
37.08	11668.1
37.12	10728.9
37.16	10114.8
37.2	10692.8
37.24	10385.7
37.28	10494.1
37.32	10620.5
37.36	10945.7
37.4	10042.6
37.44	10187.1
37.48	9446.5
37.52	10403.8
37.56	10584.4
37.6	9735.5
37.64	10313.5
37.68	10241.2
37.72	10945.7
37.76	10277.4
37.8	11451.4
37.84	10945.7
37.88	11595.9
37.92	11505.6
37.96	12842.2
38	13384.1
38.04	13022.8
38.08	12932.5
38.12	13275.7
38.16	13745.3
38.2	13618.9
38.24	12697.7
38.28	12264.2
38.32	12191.9
38.36	11379.2
38.4	12517.1
38.44	10765
38.48	11614
38.52	10602.5
38.56	10132.9
38.6	9988.37
38.64	10494.1
38.68	10331.5
38.72	10241.2
38.76	9970.3
38.8	10638.6
38.84	9825.81
38.88	9283.94
38.92	9988.37
38.96	9356.19
39	9735.5
39.04	9861.93
39.08	9410.38
39.12	10042.6
39.16	9392.32
39.2	9464.57
39.24	9193.63
39.28	9500.69
39.32	8669.83
39.36	8760.14
39.4	8958.83
39.44	9843.87
39.48	8615.64
39.52	8904.64
39.56	9536.81
39.6	9265.88
39.64	9374.25
39.68	9085.26
39.72	9536.81
39.76	8886.58
39.8	9085.26
39.84	9916.12
39.88	8832.39
39.92	8705.96
39.96	9410.38
40	9879.99
40.04	9193.63
40.08	8254.4
40.12	9049.14
40.16	9229.76
40.2	8958.83
40.24	8778.2
40.28	8633.71
40.32	9103.32
40.36	9157.51
40.4	9771.62
40.44	9157.51
40.48	8669.83
40.52	8976.89
40.56	9283.94
40.6	9554.88
40.64	8940.76
40.68	9988.37
40.72	9627.12
40.76	10042.6
40.8	10006.4
40.84	9916.12
40.88	9554.88
40.92	9952.24
40.96	9934.18
41	9753.56
41.04	9699.37
41.08	9229.76
41.12	8705.96
41.16	9067.2
41.2	9247.82
41.24	9500.69
41.28	9031.07
41.32	9482.63
41.36	9338.13
41.4	8669.83
41.44	8254.4
41.48	9013.01
41.52	8814.33
41.56	9121.38
41.6	8633.71
41.64	8615.64
41.68	9789.68
41.72	9139.45
41.76	9175.57
41.8	9121.38
41.84	8994.95
41.88	9843.87
41.92	8742.08
41.96	8994.95
42	9139.45
42.04	8814.33
42.08	9825.81
42.12	8507.27
42.16	8471.15
42.2	9464.57
42.24	10150.9
42.28	10024.5
42.32	8904.64
42.36	9157.51
42.4	8290.53
42.44	9338.13
42.48	9392.32
42.52	8922.7
42.56	8850.45
42.6	8994.95
42.64	8832.39
42.68	8778.2
42.72	8507.27
42.76	8453.08
42.8	8705.96
42.84	9247.82
42.88	8200.21
42.92	8615.64
42.96	8669.83
43	9211.7
43.04	9157.51
43.08	8561.46
43.12	8705.96
43.16	8742.08
43.2	8543.4
43.24	8868.51
43.28	8886.58
43.32	8724.02
43.36	8109.9
43.4	8543.4
43.44	8453.08
43.48	8362.77
43.52	8308.59
43.56	8127.97
43.6	8416.96
43.64	8416.96
43.68	9049.14
43.72	8525.33
43.76	8976.89
43.8	8326.65
43.84	8037.66
43.88	9428.44
43.92	8651.77
43.96	8850.45
44	9103.32
44.04	7857.03
44.08	8633.71
44.12	9013.01
44.16	8778.2
44.2	8922.7
44.24	9049.14
44.28	9374.25
44.32	10259.3
44.36	9934.18
44.4	8958.83
44.44	9410.38
44.48	9049.14
44.52	8796.27
44.56	8958.83
44.6	9103.32
44.64	8597.58
44.68	8200.21
44.72	8182.15
44.76	8362.77
44.8	7857.03
44.84	7929.28
44.88	7911.22
44.92	7640.29
44.96	8380.84
45	8724.02
45.04	8778.2
45.08	7784.79
45.12	7929.28
45.16	8308.59
45.2	8705.96
45.24	8597.58
45.28	7242.92
45.32	8344.71
45.36	8344.71
45.4	7622.23
45.44	8073.78
45.48	7333.23
45.52	7495.79
45.56	8127.97
45.6	8579.52
45.64	8037.66
45.68	8507.27
45.72	7929.28
45.76	7911.22
45.8	7676.41
45.84	7766.72
45.88	7875.1
45.92	7838.97
45.96	7369.36
46	7405.48
46.04	7441.6
46.08	7983.47
46.12	7369.36
46.16	7260.98
46.2	7838.97
46.24	7044.24
46.28	7965.41
46.32	7405.48
46.36	7784.79
46.4	7911.22
46.44	7676.41
46.48	7766.72
46.52	8019.59
46.56	7983.47
46.6	7929.28
46.64	7513.85
46.68	7622.23
46.72	8471.15
46.76	8687.89
46.8	8362.77
46.84	8778.2
46.88	8362.77
46.92	7604.16
46.96	7333.23
47	8272.46
47.04	7730.6
47.08	7965.41
47.12	7694.47
47.16	7622.23
47.2	7820.91
47.24	7875.1
47.28	8254.4
47.32	8091.84
47.36	7459.67
47.4	7838.97
47.44	8416.96
47.48	8164.09
47.52	7549.98
47.56	7423.54
47.6	8182.15
47.64	8127.97
47.68	7965.41
47.72	7369.36
47.76	7622.23
47.8	7495.79
47.84	8109.9
47.88	7604.16
47.92	7712.54
47.96	7622.23
48	7260.98
48.04	7947.34
48.08	7531.92
48.12	7965.41
48.16	7387.42
48.2	6737.18
48.24	7712.54
48.28	7875.1
48.32	7477.73
48.36	7676.41
48.4	7459.67
48.44	7965.41
48.48	7875.1
48.52	7459.67
48.56	7676.41
48.6	7568.04
48.64	7568.04
48.68	7423.54
48.72	7062.3
48.76	7405.48
48.8	7640.29
48.84	7152.61
48.88	7297.11
48.92	6899.74
48.96	6845.55
49	7098.42
49.04	7405.48
49.08	7188.73
49.12	7242.92
49.16	7513.85
49.2	7947.34
49.24	8724.02
49.28	8940.76
49.32	8507.27
49.36	9500.69
49.4	8615.64
49.44	8742.08
49.48	8489.21
49.52	9049.14
49.56	10403.8
49.6	9464.57
49.64	8489.21
49.68	8597.58
49.72	8669.83
49.76	8705.96
49.8	7875.1
49.84	8091.84
49.88	7369.36
49.92	7730.6
49.96	7604.16
50	7730.6
50.04	7712.54
50.08	7730.6
50.12	8344.71
50.16	7875.1
50.2	7820.91
50.24	7134.55
50.28	7513.85
50.32	7387.42
50.36	7459.67
50.4	7333.23
50.44	7116.49
50.48	7676.41
50.52	6628.81
50.56	7134.55
50.6	6448.19
50.64	7098.42
50.68	6953.93
50.72	7152.61
50.76	7549.98
50.8	6610.75
50.84	6159.19
50.88	6719.12
50.92	7170.67
50.96	6953.93
51	7279.05
51.04	7008.11
51.08	7929.28
51.12	7820.91
51.16	7279.05
51.2	7477.73
51.24	7622.23
51.28	7333.23
51.32	7116.49
51.36	7170.67
51.4	6791.37
51.44	6791.37
51.48	6971.99
51.52	6755.24
51.56	6394
51.6	6574.62
51.64	7279.05
51.68	6701.06
51.72	6701.06
51.76	6899.74
51.8	7152.61
51.84	7242.92
51.88	6737.18
51.92	6303.69
51.96	6339.81
52	6339.81
52.04	6845.55
52.08	6375.94
52.12	6357.88
52.16	6141.13
52.2	7134.55
52.24	6574.62
52.28	6014.69
52.32	6339.81
52.36	6123.07
52.4	6827.49
52.44	6159.19
52.48	6195.32
52.52	6394
52.56	6737.18
52.6	6394
52.64	6086.94
52.68	6050.82
52.72	6086.94
52.76	6484.31
52.8	5978.57
52.84	6303.69
52.88	6195.32
52.92	6068.88
52.96	6303.69
53	5545.08
53.04	6412.06
53.08	6430.12
53.12	5906.32
53.16	6177.25
53.2	6267.56
53.24	6050.82
53.28	6014.69
53.32	5472.83
53.36	5906.32
53.4	5960.51
53.44	6123.07
53.48	5779.89
53.52	5545.08
53.56	5328.33
53.6	5328.33
53.64	5743.76
53.68	6105.01
53.72	5563.14
53.76	6050.82
53.8	6032.76
53.84	5653.45
53.88	5346.4
53.92	5996.63
53.96	5870.2
54	5888.26
54.04	6213.38
54.08	6105.01
54.12	6285.63
54.16	5816.01
54.2	5942.45
54.24	6068.88
54.28	6141.13
54.32	5743.76
54.36	5852.14
54.4	5689.58
54.44	5563.14
54.48	5707.64
54.52	4822.59
54.56	5039.34
54.6	5382.52
54.64	6123.07
54.68	5870.2
54.72	4732.28
54.76	5599.27
54.8	5346.4
54.84	5472.83
54.88	5183.84
54.92	5545.08
54.96	4985.15
55	5436.71
55.04	5364.46
55.08	5472.83
55.12	5689.58
55.16	4985.15
55.2	6177.25
55.24	5165.77
55.28	5436.71
55.32	5346.4
55.36	4930.97
55.4	5021.28
55.44	4786.47
55.48	4587.79
55.52	5039.34
55.56	5310.27
55.6	5599.27
55.64	5057.4
55.68	5219.96
55.72	5219.96
55.76	4804.53
55.8	4912.9
55.84	5003.21
55.88	4967.09
55.92	4750.34
55.96	4912.9
56	4822.59
56.04	5075.46
56.08	4894.84
56.12	5183.84
56.16	5021.28
56.2	5364.46
56.24	5310.27
56.28	5147.71
56.32	5761.82
56.36	5256.08
56.4	5310.27
56.44	4804.53
56.48	5057.4
56.52	4660.03
56.56	4804.53
56.6	4461.35
56.64	4696.16
56.68	5075.46
56.72	4678.1
56.76	4894.84
56.8	4858.72
56.84	4714.22
56.88	4407.16
56.92	4334.92
56.96	4190.42
57	4714.22
57.04	4262.67
57.08	4425.23
57.12	4641.97
57.16	4551.66
57.2	5039.34
57.24	4262.67
57.28	4316.85
57.32	4605.85
57.36	4425.23
57.4	4569.72
57.44	4894.84
57.48	4605.85
57.52	4027.86
57.56	4208.48
57.6	4840.66
57.64	4786.47
57.68	4298.79
57.72	4678.1
57.76	4533.6
57.8	4768.41
57.84	4118.17
57.88	4605.85
57.92	4660.03
57.96	4750.34
58	4605.85
58.04	3901.42
58.08	4605.85
58.12	4732.28
58.16	4497.47
58.2	4479.41
58.24	4587.79
58.28	4280.73
58.32	4551.66
58.36	4768.41
58.4	4641.97
58.44	4714.22
58.48	4371.04
58.52	4063.98
58.56	4894.84
58.6	4407.16
58.64	4172.36
58.68	4190.42
58.72	4371.04
58.76	4118.17
58.8	4190.42
58.84	4660.03
58.88	4172.36
58.92	4371.04
58.96	4660.03
59	3883.36
59.04	4009.8
59.08	4696.16
59.12	4732.28
59.16	4082.05
59.2	4244.6
59.24	3811.11
59.28	4118.17
59.32	4136.23
59.36	4136.23
59.4	4082.05
59.44	4371.04
59.48	4768.41
59.52	3973.67
59.56	3973.67
59.6	4768.41
59.64	4732.28
59.68	4136.23
59.72	4244.6
59.76	4371.04
59.8	4641.97
59.84	4822.59
59.88	4605.85
59.92	4461.35
59.96	4100.11
60	4280.73