File: program/database/experiments/MU/xrd/1102/parallel/1101/xrd/100.TXT
Sample
Comments
Filename	C:\Data\西出研\梅木\20211102オペ\LiTFSI24wt_04_0004_0099-1_C_2θ.raw
Goniometer	SmartLab(In-plane)
Attachment	標準Zステージ
Monochromater	None
X	0
Y	0
Z	0.01756
ScanningMode	2Theta
ScanningType	Continuos Scanning
X-Ray	40kV/30mA
入射スリット	0.300mm
受光スリット1	20.000mm
受光スリット2	20.000mm
None
Start	5
Stop	60
Step	0.02
Speed	21.6746
Theta	0
5	7766.72
5.04	7062.3
5.08	7369.36
5.12	6466.25
5.16	6701.06
5.2	7387.42
5.24	6863.62
5.28	6971.99
5.32	6466.25
5.36	6827.49
5.4	6990.05
5.44	6755.24
5.48	6646.87
5.52	6357.88
5.56	6899.74
5.6	6448.19
5.64	6520.44
5.68	6285.63
5.72	6610.75
5.76	6538.5
5.8	6737.18
5.84	6682.99
5.88	6484.31
5.92	6448.19
5.96	6971.99
6	6737.18
6.04	6339.81
6.08	6249.5
6.12	5960.51
6.16	5924.38
6.2	6592.68
6.24	6375.94
6.28	6159.19
6.32	5888.26
6.36	6484.31
6.4	6285.63
6.44	6249.5
6.48	6141.13
6.52	5816.01
6.56	6556.56
6.6	5599.27
6.64	6032.76
6.68	6123.07
6.72	6068.88
6.76	6032.76
6.8	6303.69
6.84	5888.26
6.88	6014.69
6.92	6032.76
6.96	5906.32
7	6050.82
7.04	5761.82
7.08	6123.07
7.12	5942.45
7.16	6123.07
7.2	6159.19
7.24	5653.45
7.28	6303.69
7.32	5581.2
7.36	6303.69
7.4	5942.45
7.44	5527.02
7.48	5689.58
7.52	5545.08
7.56	6050.82
7.6	5021.28
7.64	5599.27
7.68	6195.32
7.72	6195.32
7.76	5490.89
7.8	5563.14
7.84	6050.82
7.88	6339.81
7.92	6123.07
7.96	6213.38
8	5671.51
8.04	6520.44
8.08	5834.07
8.12	6213.38
8.16	5779.89
8.2	5563.14
8.24	5942.45
8.28	5743.76
8.32	5816.01
8.36	5545.08
8.4	5238.02
8.44	5147.71
8.48	5490.89
8.52	5436.71
8.56	6394
8.6	5635.39
8.64	5111.59
8.68	5924.38
8.72	5761.82
8.76	5707.64
8.8	5761.82
8.84	5924.38
8.88	5779.89
8.92	5183.84
8.96	5617.33
9	5834.07
9.04	6105.01
9.08	5129.65
9.12	5490.89
9.16	5653.45
9.2	5725.7
9.24	5183.84
9.28	5906.32
9.32	5364.46
9.36	5563.14
9.4	5888.26
9.44	5743.76
9.48	5310.27
9.52	5671.51
9.56	5906.32
9.6	5797.95
9.64	5436.71
9.68	5563.14
9.72	5671.51
9.76	6412.06
9.8	5743.76
9.84	5563.14
9.88	5472.83
9.92	5906.32
9.96	5292.21
10	5147.71
10.04	5256.08
10.08	5238.02
10.12	5816.01
10.16	5725.7
10.2	5490.89
10.24	5725.7
10.28	5454.77
10.32	5454.77
10.36	5527.02
10.4	5563.14
10.44	5797.95
10.48	5960.51
10.52	5924.38
10.56	6285.63
10.6	5797.95
10.64	6267.56
10.68	7206.8
10.72	7333.23
10.76	7297.11
10.8	7098.42
10.84	5996.63
10.88	4660.03
10.92	6231.44
10.96	6014.69
11	5689.58
11.04	5906.32
11.08	5725.7
11.12	5653.45
11.16	5454.77
11.2	5635.39
11.24	5418.64
11.28	5545.08
11.32	5816.01
11.36	6068.88
11.4	5617.33
11.44	6050.82
11.48	5563.14
11.52	5743.76
11.56	4912.9
11.6	5653.45
11.64	5689.58
11.68	5617.33
11.72	5671.51
11.76	5057.4
11.8	5816.01
11.84	6267.56
11.88	5527.02
11.92	5581.2
11.96	5888.26
12	5743.76
12.04	6303.69
12.08	5292.21
12.12	5671.51
12.16	6375.94
12.2	5996.63
12.24	5527.02
12.28	5797.95
12.32	5834.07
12.36	5942.45
12.4	6032.76
12.44	6375.94
12.48	5563.14
12.52	5996.63
12.56	6285.63
12.6	5418.64
12.64	5671.51
12.68	5870.2
12.72	5761.82
12.76	6014.69
12.8	5527.02
12.84	5563.14
12.88	6014.69
12.92	6068.88
12.96	5436.71
13	5545.08
13.04	5960.51
13.08	6177.25
13.12	5563.14
13.16	5978.57
13.2	5129.65
13.24	6357.88
13.28	5418.64
13.32	5906.32
13.36	5508.95
13.4	5563.14
13.44	5563.14
13.48	5274.15
13.52	5942.45
13.56	5852.14
13.6	5274.15
13.64	6267.56
13.68	5779.89
13.72	5707.64
13.76	6177.25
13.8	5779.89
13.84	5797.95
13.88	5888.26
13.92	5545.08
13.96	5996.63
14	5527.02
14.04	5761.82
14.08	5870.2
14.12	5779.89
14.16	5527.02
14.2	6086.94
14.24	4912.9
14.28	5527.02
14.32	6123.07
14.36	6123.07
14.4	5508.95
14.44	6520.44
14.48	5942.45
14.52	5870.2
14.56	5274.15
14.6	5617.33
14.64	5418.64
14.68	5707.64
14.72	5761.82
14.76	5527.02
14.8	5761.82
14.84	5725.7
14.88	5635.39
14.92	5707.64
14.96	5852.14
15	6303.69
15.04	5129.65
15.08	6105.01
15.12	5852.14
15.16	5671.51
15.2	5003.21
15.24	5472.83
15.28	5328.33
15.32	5545.08
15.36	6032.76
15.4	5924.38
15.44	5490.89
15.48	5779.89
15.52	5183.84
15.56	5400.58
15.6	5653.45
15.64	5743.76
15.68	5472.83
15.72	5039.34
15.76	5238.02
15.8	5310.27
15.84	5093.53
15.88	5183.84
15.92	5165.77
15.96	5057.4
16	5328.33
16.04	5599.27
16.08	5219.96
16.12	5328.33
16.16	5996.63
16.2	5436.71
16.24	5689.58
16.28	5707.64
16.32	6141.13
16.36	5382.52
16.4	5599.27
16.44	5472.83
16.48	5201.9
16.52	5364.46
16.56	5219.96
16.6	5165.77
16.64	5490.89
16.68	5147.71
16.72	5129.65
16.76	5400.58
16.8	5635.39
16.84	5508.95
16.88	4949.03
16.92	5238.02
16.96	5472.83
17	5111.59
17.04	6231.44
17.08	6917.8
17.12	7405.48
17.16	8200.21
17.2	7080.36
17.24	5689.58
17.28	5057.4
17.32	5563.14
17.36	5075.46
17.4	4894.84
17.44	4985.15
17.48	4876.78
17.52	5183.84
17.56	4967.09
17.6	4750.34
17.64	4696.16
17.68	4407.16
17.72	4425.23
17.76	4714.22
17.8	4894.84
17.84	4515.54
17.88	4443.29
17.92	5093.53
17.96	4930.97
18	4912.9
18.04	5111.59
18.08	4479.41
18.12	4949.03
18.16	4930.97
18.2	5490.89
18.24	4876.78
18.28	5725.7
18.32	6068.88
18.36	5707.64
18.4	5454.77
18.44	4804.53
18.48	5165.77
18.52	4533.6
18.56	4660.03
18.6	5093.53
18.64	4858.72
18.68	4623.91
18.72	4732.28
18.76	5129.65
18.8	5563.14
18.84	4623.91
18.88	4949.03
18.92	5635.39
18.96	6664.93
19	7857.03
19.04	10006.4
19.08	9807.75
19.12	9717.43
19.16	8091.84
19.2	6592.68
19.24	5527.02
19.28	5003.21
19.32	5201.9
19.36	5003.21
19.4	5147.71
19.44	5400.58
19.48	4551.66
19.52	5364.46
19.56	5183.84
19.6	5003.21
19.64	4660.03
19.68	4533.6
19.72	4605.85
19.76	4714.22
19.8	4371.04
19.84	4226.54
19.88	4660.03
19.92	5039.34
19.96	4551.66
20	4605.85
20.04	4479.41
20.08	4678.1
20.12	4623.91
20.16	4930.97
20.2	4696.16
20.24	4515.54
20.28	4587.79
20.32	4407.16
20.36	5310.27
20.4	4930.97
20.44	4623.91
20.48	4660.03
20.52	4479.41
20.56	4136.23
20.6	4280.73
20.64	4262.67
20.68	4443.29
20.72	4443.29
20.76	4280.73
20.8	4371.04
20.84	4515.54
20.88	4660.03
20.92	3793.05
20.96	4876.78
21	4208.48
21.04	4334.92
21.08	4371.04
21.12	4045.92
21.16	4894.84
21.2	4045.92
21.24	4316.85
21.28	4334.92
21.32	4371.04
21.36	4605.85
21.4	3991.73
21.44	4623.91
21.48	4551.66
21.52	4316.85
21.56	4407.16
21.6	4804.53
21.64	4985.15
21.68	4009.8
21.72	4533.6
21.76	4226.54
21.8	4497.47
21.84	3991.73
21.88	4605.85
21.92	4136.23
21.96	3919.49
22	4569.72
22.04	4045.92
22.08	4497.47
22.12	4009.8
22.16	3973.67
22.2	4298.79
22.24	4045.92
22.28	3774.99
22.32	4100.11
22.36	4136.23
22.4	4100.11
22.44	3811.11
22.48	4027.86
22.52	3756.93
22.56	4714.22
22.6	3973.67
22.64	4352.98
22.68	3919.49
22.72	3774.99
22.76	4100.11
22.8	4172.36
22.84	4298.79
22.88	4425.23
22.92	4316.85
22.96	4876.78
23	5418.64
23.04	5472.83
23.08	4912.9
23.12	4930.97
23.16	4389.1
23.2	4641.97
23.24	4009.8
23.28	4407.16
23.32	3305.37
23.36	3413.75
23.4	3991.73
23.44	3377.62
23.48	3901.42
23.52	4244.6
23.56	4082.05
23.6	3793.05
23.64	3630.49
23.68	4027.86
23.72	3847.24
23.76	3576.31
23.8	3630.49
23.84	3558.24
23.88	3558.24
23.92	3756.93
23.96	3612.43
24	3594.37
24.04	3540.18
24.08	3666.62
24.12	3955.61
24.16	3684.68
24.2	3612.43
24.24	3612.43
24.28	3594.37
24.32	4063.98
24.36	3756.93
24.4	3630.49
24.44	4118.17
24.48	4660.03
24.52	5093.53
24.56	5852.14
24.6	5834.07
24.64	5725.7
24.68	5472.83
24.72	5039.34
24.76	5256.08
24.8	5003.21
24.84	5364.46
24.88	5201.9
24.92	4732.28
24.96	4027.86
25	4208.48
25.04	3738.86
25.08	3522.12
25.12	3684.68
25.16	3720.8
25.2	3215.06
25.24	3413.75
25.28	3215.06
25.32	3377.62
25.36	3106.69
25.4	3160.88
25.44	3088.63
25.48	3449.87
25.52	2980.25
25.56	3142.81
25.6	3702.74
25.64	2889.94
25.68	2835.76
25.72	2673.2
25.76	2908.01
25.8	3124.75
25.84	3016.38
25.88	2998.32
25.92	2673.2
25.96	2926.07
26	2871.88
26.04	3052.5
26.08	2871.88
26.12	2926.07
26.16	2781.57
26.2	2889.94
26.24	2691.26
26.28	2889.94
26.32	2655.14
26.36	3233.12
26.4	2528.7
26.44	2962.19
26.48	2871.88
26.52	2962.19
26.56	2980.25
26.6	2709.32
26.64	2799.63
26.68	2564.82
26.72	3197
26.76	2528.7
26.8	2691.26
26.84	2799.63
26.88	2709.32
26.92	2619.01
26.96	2980.25
27	2673.2
27.04	2763.51
27.08	2637.07
27.12	2871.88
27.16	2492.58
27.2	2709.32
27.24	2709.32
27.28	2293.89
27.32	2528.7
27.36	2203.58
27.4	2709.32
27.44	2564.82
27.48	2600.95
27.52	2619.01
27.56	2853.82
27.6	2492.58
27.64	3016.38
27.68	2763.51
27.72	2727.38
27.76	2330.02
27.8	2438.39
27.84	2528.7
27.88	2709.32
27.92	2185.52
27.96	2330.02
28	2655.14
28.04	2799.63
28.08	2619.01
28.12	2438.39
28.16	2293.89
28.2	2492.58
28.24	2546.76
28.28	2546.76
28.32	2366.14
28.36	2510.64
28.4	2149.4
28.44	2564.82
28.48	2167.46
28.52	2149.4
28.56	2384.2
28.6	2492.58
28.64	2619.01
28.68	2745.45
28.72	2853.82
28.76	2980.25
28.8	3106.69
28.84	2926.07
28.88	2510.64
28.92	2348.08
28.96	2835.76
29	2492.58
29.04	2203.58
29.08	2293.89
29.12	2691.26
29.16	2546.76
29.2	2185.52
29.24	2203.58
29.28	2221.64
29.32	2293.89
29.36	2149.4
29.4	2041.02
29.44	2095.21
29.48	1968.77
29.52	2059.08
29.56	1968.77
29.6	2185.52
29.64	2275.83
29.68	2149.4
29.72	2022.96
29.76	2384.2
29.8	2582.89
29.84	1968.77
29.88	1896.53
29.92	2113.27
29.96	2113.27
30	2095.21
30.04	1806.21
30.08	2113.27
30.12	2311.95
30.16	2059.08
30.2	2077.15
30.24	2203.58
30.28	2004.9
30.32	2095.21
30.36	2149.4
30.4	2077.15
30.44	2059.08
30.48	2041.02
30.52	2293.89
30.56	1932.65
30.6	2330.02
30.64	2348.08
30.68	2077.15
30.72	1914.59
30.76	1752.03
30.8	2293.89
30.84	1986.84
30.88	2077.15
30.92	1968.77
30.96	1950.71
31	1697.84
31.04	1806.21
31.08	1968.77
31.12	1860.4
31.16	1752.03
31.2	1950.71
31.24	1986.84
31.28	1697.84
31.32	1770.09
31.36	1986.84
31.4	2095.21
31.44	2022.96
31.48	1968.77
31.52	1842.34
31.56	1932.65
31.6	2384.2
31.64	1986.84
31.68	2203.58
31.72	2221.64
31.76	2077.15
31.8	2293.89
31.84	2474.51
31.88	2366.14
31.92	2059.08
31.96	1752.03
32	2113.27
32.04	1806.21
32.08	2022.96
32.12	2095.21
32.16	2077.15
32.2	2004.9
32.24	1625.59
32.28	1806.21
32.32	1914.59
32.36	1517.22
32.4	2004.9
32.44	1986.84
32.48	1444.97
32.52	1986.84
32.56	1788.15
32.6	1788.15
32.64	1607.53
32.68	1860.4
32.72	2004.9
32.76	1715.9
32.8	1914.59
32.84	2131.33
32.88	2239.71
32.92	2022.96
32.96	2131.33
33	2817.69
33.04	2871.88
33.08	3106.69
33.12	3522.12
33.16	3142.81
33.2	3215.06
33.24	2781.57
33.28	2781.57
33.32	2438.39
33.36	2275.83
33.4	2077.15
33.44	1842.34
33.48	1788.15
33.52	1499.16
33.56	2041.02
33.6	2095.21
33.64	1607.53
33.68	1679.78
33.72	1878.46
33.76	1607.53
33.8	1625.59
33.84	1896.53
33.88	1968.77
33.92	1697.84
33.96	1824.28
34	2131.33
34.04	2041.02
34.08	1824.28
34.12	2004.9
34.16	1896.53
34.2	1860.4
34.24	1752.03
34.28	1842.34
34.32	1661.72
34.36	1788.15
34.4	1571.41
34.44	1625.59
34.48	1444.97
34.52	2077.15
34.56	1697.84
34.6	1806.21
34.64	1932.65
34.68	2059.08
34.72	1968.77
34.76	1968.77
34.8	1733.97
34.84	1535.28
34.88	1661.72
34.92	1733.97
34.96	1752.03
35	1571.41
35.04	1661.72
35.08	1697.84
35.12	1499.16
35.16	1589.47
35.2	1463.03
35.24	1842.34
35.28	1463.03
35.32	1535.28
35.36	1553.34
35.4	1318.54
35.44	1336.6
35.48	1607.53
35.52	1282.41
35.56	1625.59
35.6	1589.47
35.64	1372.72
35.68	1535.28
35.72	1390.79
35.76	1499.16
35.8	1661.72
35.84	1679.78
35.88	1354.66
35.92	1463.03
35.96	1444.97
36	1444.97
36.04	1372.72
36.08	1770.09
36.12	1589.47
36.16	1752.03
36.2	1733.97
36.24	1336.6
36.28	1752.03
36.32	1733.97
36.36	1571.41
36.4	1643.66
36.44	1553.34
36.48	1444.97
36.52	1517.22
36.56	1715.9
36.6	1661.72
36.64	1842.34
36.68	1499.16
36.72	1481.1
36.76	1318.54
36.8	1408.85
36.84	1282.41
36.88	1625.59
36.92	1806.21
36.96	2059.08
37	1607.53
37.04	1481.1
37.08	1571.41
37.12	1300.47
37.16	1517.22
37.2	1282.41
37.24	1661.72
37.28	1264.35
37.32	1679.78
37.36	1571.41
37.4	1643.66
37.44	1408.85
37.48	1643.66
37.52	1372.72
37.56	1607.53
37.6	1463.03
37.64	1499.16
37.68	1661.72
37.72	1589.47
37.76	1950.71
37.8	1842.34
37.84	2167.46
37.88	2564.82
37.92	2203.58
37.96	2257.77
38	2257.77
38.04	2420.33
38.08	1878.46
38.12	1896.53
38.16	1499.16
38.2	1661.72
38.24	1986.84
38.28	1950.71
38.32	1860.4
38.36	1679.78
38.4	1481.1
38.44	1463.03
38.48	1192.1
38.52	1300.47
38.56	1408.85
38.6	1553.34
38.64	1426.91
38.68	1390.79
38.72	1643.66
38.76	1444.97
38.8	1643.66
38.84	1354.66
38.88	1318.54
38.92	1282.41
38.96	1174.04
39	1282.41
39.04	1246.29
39.08	1571.41
39.12	1119.85
39.16	1264.35
39.2	1408.85
39.24	1174.04
39.28	1697.84
39.32	1210.16
39.36	1210.16
39.4	1571.41
39.44	1029.54
39.48	1065.67
39.52	1625.59
39.56	1481.1
39.6	1282.41
39.64	1264.35
39.68	1137.92
39.72	1535.28
39.76	1155.98
39.8	1390.79
39.84	1318.54
39.88	1336.6
39.92	1083.73
39.96	1336.6
40	1192.1
40.04	1246.29
40.08	1282.41
40.12	1246.29
40.16	1246.29
40.2	1101.79
40.24	1481.1
40.28	1300.47
40.32	1264.35
40.36	1246.29
40.4	1137.92
40.44	1354.66
40.48	1318.54
40.52	1174.04
40.56	1083.73
40.6	1535.28
40.64	1535.28
40.68	1589.47
40.72	1426.91
40.76	1318.54
40.8	1246.29
40.84	1463.03
40.88	1264.35
40.92	1155.98
40.96	1517.22
41	1481.1
41.04	1174.04
41.08	1264.35
41.12	1354.66
41.16	1228.23
41.2	1499.16
41.24	1137.92
41.28	1246.29
41.32	1264.35
41.36	1192.1
41.4	1228.23
41.44	1174.04
41.48	1210.16
41.52	1137.92
41.56	1029.54
41.6	1137.92
41.64	1318.54
41.68	1101.79
41.72	1300.47
41.76	1264.35
41.8	1300.47
41.84	975.356
41.88	1246.29
41.92	1155.98
41.96	1047.6
42	1571.41
42.04	1011.48
42.08	1246.29
42.12	1408.85
42.16	1318.54
42.2	1155.98
42.24	1174.04
42.28	1336.6
42.32	1463.03
42.36	1444.97
42.4	1300.47
42.44	1336.6
42.48	1553.34
42.52	1137.92
42.56	1336.6
42.6	1426.91
42.64	993.418
42.68	1282.41
42.72	1065.67
42.76	1246.29
42.8	1083.73
42.84	1155.98
42.88	1282.41
42.92	1426.91
42.96	993.418
43	1390.79
43.04	1517.22
43.08	1228.23
43.12	1354.66
43.16	1282.41
43.2	975.356
43.24	1246.29
43.28	993.418
43.32	1246.29
43.36	1174.04
43.4	1083.73
43.44	1463.03
43.48	1137.92
43.52	1011.48
43.56	1282.41
43.6	993.418
43.64	1029.54
43.68	1282.41
43.72	1318.54
43.76	1246.29
43.8	1101.79
43.84	1192.1
43.88	1228.23
43.92	1354.66
43.96	1481.1
44	1444.97
44.04	1553.34
44.08	1733.97
44.12	1372.72
44.16	1625.59
44.2	1390.79
44.24	1444.97
44.28	1246.29
44.32	1354.66
44.36	1264.35
44.4	1137.92
44.44	1228.23
44.48	1065.67
44.52	1065.67
44.56	1119.85
44.6	1192.1
44.64	1336.6
44.68	1101.79
44.72	1192.1
44.76	1101.79
44.8	1228.23
44.84	1029.54
44.88	993.418
44.92	1155.98
44.96	1318.54
45	1174.04
45.04	993.418
45.08	1137.92
45.12	1119.85
45.16	903.107
45.2	1137.92
45.24	1246.29
45.28	1137.92
45.32	1192.1
45.36	1101.79
45.4	1011.48
45.44	1029.54
45.48	1083.73
45.52	1155.98
45.56	921.169
45.6	1246.29
45.64	1029.54
45.68	921.169
45.72	1065.67
45.76	1155.98
45.8	957.294
45.84	1264.35
45.88	1282.41
45.92	957.294
45.96	921.169
46	975.356
46.04	1083.73
46.08	1065.67
46.12	812.797
46.16	1047.6
46.2	1065.67
46.24	794.734
46.28	1029.54
46.32	1137.92
46.36	1228.23
46.4	903.107
46.44	1318.54
46.48	1210.16
46.52	1210.16
46.56	1336.6
46.6	993.418
46.64	1390.79
46.68	1155.98
46.72	1137.92
46.76	1101.79
46.8	1083.73
46.84	1210.16
46.88	1029.54
46.92	1083.73
46.96	1119.85
47	794.734
47.04	1137.92
47.08	1065.67
47.12	1228.23
47.16	1101.79
47.2	1029.54
47.24	1137.92
47.28	939.232
47.32	993.418
47.36	848.921
47.4	1192.1
47.44	1155.98
47.48	1155.98
47.52	1047.6
47.56	686.362
47.6	848.921
47.64	1083.73
47.68	758.61
47.72	1029.54
47.76	1174.04
47.8	939.232
47.84	1318.54
47.88	1083.73
47.92	866.983
47.96	957.294
48	957.294
48.04	758.61
48.08	957.294
48.12	1137.92
48.16	1192.1
48.2	975.356
48.24	776.672
48.28	993.418
48.32	993.418
48.36	812.797
48.4	776.672
48.44	921.169
48.48	939.232
48.52	1101.79
48.56	830.859
48.6	993.418
48.64	812.797
48.68	993.418
48.72	939.232
48.76	740.548
48.8	921.169
48.84	866.983
48.88	1047.6
48.92	704.424
48.96	993.418
49	794.734
49.04	975.356
49.08	848.921
49.12	939.232
49.16	812.797
49.2	993.418
49.24	866.983
49.28	885.045
49.32	740.548
49.36	1029.54
49.4	776.672
49.44	830.859
49.48	794.734
49.52	1065.67
49.56	1029.54
49.6	740.548
49.64	1065.67
49.68	921.169
49.72	885.045
49.76	704.424
49.8	939.232
49.84	1011.48
49.88	794.734
49.92	866.983
49.96	957.294
50	740.548
50.04	758.61
50.08	830.859
50.12	939.232
50.16	885.045
50.2	596.051
50.24	758.61
50.28	830.859
50.32	975.356
50.36	848.921
50.4	1065.67
50.44	903.107
50.48	812.797
50.52	1011.48
50.56	1011.48
50.6	722.486
50.64	848.921
50.68	1119.85
50.72	866.983
50.76	866.983
50.8	993.418
50.84	866.983
50.88	614.113
50.92	866.983
50.96	975.356
51	776.672
51.04	830.859
51.08	776.672
51.12	812.797
51.16	885.045
51.2	848.921
51.24	866.983
51.28	848.921
51.32	1065.67
51.36	993.418
51.4	812.797
51.44	686.362
51.48	939.232
51.52	632.175
51.56	957.294
51.6	740.548
51.64	921.169
51.68	794.734
51.72	903.107
51.76	830.859
51.8	577.989
51.84	993.418
51.88	903.107
51.92	722.486
51.96	885.045
52	1047.6
52.04	848.921
52.08	794.734
52.12	614.113
52.16	668.299
52.2	993.418
52.24	848.921
52.28	559.927
52.32	903.107
52.36	975.356
52.4	866.983
52.44	758.61
52.48	650.237
52.52	740.548
52.56	577.989
52.6	848.921
52.64	704.424
52.68	957.294
52.72	794.734
52.76	776.672
52.8	885.045
52.84	686.362
52.88	975.356
52.92	794.734
52.96	650.237
53	596.051
53.04	939.232
53.08	975.356
53.12	722.486
53.16	632.175
53.2	903.107
53.24	957.294
53.28	596.051
53.32	975.356
53.36	740.548
53.4	903.107
53.44	921.169
53.48	740.548
53.52	776.672
53.56	722.486
53.6	505.74
53.64	704.424
53.68	975.356
53.72	921.169
53.76	704.424
53.8	866.983
53.84	848.921
53.88	921.169
53.92	866.983
53.96	848.921
54	830.859
54.04	704.424
54.08	722.486
54.12	957.294
54.16	740.548
54.2	812.797
54.24	830.859
54.28	650.237
54.32	704.424
54.36	885.045
54.4	704.424
54.44	776.672
54.48	577.989
54.52	577.989
54.56	577.989
54.6	740.548
54.64	848.921
54.68	794.734
54.72	686.362
54.76	776.672
54.8	596.051
54.84	668.299
54.88	668.299
54.92	668.299
54.96	848.921
55	848.921
55.04	596.051
55.08	668.299
55.12	722.486
55.16	632.175
55.2	686.362
55.24	830.859
55.28	668.299
55.32	776.672
55.36	812.797
55.4	614.113
55.44	650.237
55.48	812.797
55.52	812.797
55.56	541.864
55.6	830.859
55.64	794.734
55.68	559.927
55.72	686.362
55.76	559.927
55.8	541.864
55.84	740.548
55.88	740.548
55.92	722.486
55.96	758.61
56	686.362
56.04	794.734
56.08	830.859
56.12	686.362
56.16	848.921
56.2	776.672
56.24	704.424
56.28	722.486
56.32	830.859
56.36	740.548
56.4	794.734
56.44	632.175
56.48	812.797
56.52	614.113
56.56	704.424
56.6	704.424
56.64	632.175
56.68	559.927
56.72	704.424
56.76	632.175
56.8	704.424
56.84	596.051
56.88	632.175
56.92	885.045
56.96	686.362
57	614.113
57.04	596.051
57.08	559.927
57.12	704.424
57.16	668.299
57.2	722.486
57.24	758.61
57.28	632.175
57.32	740.548
57.36	686.362
57.4	830.859
57.44	776.672
57.48	776.672
57.52	668.299
57.56	921.169
57.6	577.989
57.64	668.299
57.68	830.859
57.72	614.113
57.76	686.362
57.8	668.299
57.84	650.237
57.88	559.927
57.92	794.734
57.96	505.74
58	559.927
58.04	614.113
58.08	650.237
58.12	704.424
58.16	487.678
58.2	740.548
58.24	848.921
58.28	397.367
58.32	487.678
58.36	650.237
58.4	686.362
58.44	794.734
58.48	722.486
58.52	614.113
58.56	776.672
58.6	596.051
58.64	596.051
58.68	650.237
58.72	776.672
58.76	577.989
58.8	939.232
58.84	722.486
58.88	397.367
58.92	686.362
58.96	577.989
59	541.864
59.04	722.486
59.08	632.175
59.12	704.424
59.16	794.734
59.2	722.486
59.24	541.864
59.28	523.802
59.32	794.734
59.36	523.802
59.4	776.672
59.44	596.051
59.48	650.237
59.52	668.299
59.56	632.175
59.6	758.61
59.64	596.051
59.68	776.672
59.72	632.175
59.76	632.175
59.8	451.554
59.84	866.983
59.88	686.362
59.92	668.299
59.96	577.989
60	668.299
	234.808