File: database/experiments/MU/battery/922(806)/data/05.txt
Sept. 23, 2021   19:50:59
Chronopotentiometry
File: c:\users\user\desktop\data\2021_m2\umeki\210923\cp05c.txt
Data Source:  Experiment
Instrument Model:  CHI760E
Header:
Note:

Cathodic Current (A) = 5.9e-4
Anodic Current (A) = 5.9e-4
Init P/N = N
Data Storage Interval (s) = 0.1
High E Limit (V) = 2.5
Low E Limit (V) = 1
Cathodic Time (s) = 10
Anodic Time (s) = 10
Current Switching Polarity = Potential
Segment = 3

Time/sec, Potential/V

1.000e-1, 1.617e+0
2.500e+0, 1.594e+0
4.900e+0, 1.583e+0
7.300e+0, 1.573e+0
9.700e+0, 1.563e+0
1.210e+1, 1.554e+0
1.450e+1, 1.544e+0
1.690e+1, 1.533e+0
1.930e+1, 1.523e+0
2.170e+1, 1.511e+0
2.410e+1, 1.499e+0
2.650e+1, 1.486e+0
2.890e+1, 1.473e+0
3.130e+1, 1.458e+0
3.370e+1, 1.442e+0
3.610e+1, 1.425e+0
3.850e+1, 1.407e+0
4.090e+1, 1.387e+0
4.330e+1, 1.364e+0
4.570e+1, 1.339e+0
4.810e+1, 1.310e+0
5.050e+1, 1.276e+0
5.290e+1, 1.235e+0
5.530e+1, 1.186e+0
5.770e+1, 1.127e+0
6.010e+1, 1.054e+0
6.250e+1, 1.839e+0
6.490e+1, 1.860e+0
6.730e+1, 1.871e+0
6.970e+1, 1.879e+0
7.210e+1, 1.886e+0
7.450e+1, 1.892e+0
7.690e+1, 1.898e+0
7.930e+1, 1.903e+0
8.170e+1, 1.907e+0
8.410e+1, 1.912e+0
8.650e+1, 1.916e+0
8.890e+1, 1.919e+0
9.130e+1, 1.923e+0
9.370e+1, 1.926e+0
9.610e+1, 1.929e+0
9.850e+1, 1.932e+0
1.009e+2, 1.935e+0
1.033e+2, 1.937e+0
1.057e+2, 1.940e+0
1.081e+2, 1.942e+0
1.105e+2, 1.945e+0
1.129e+2, 1.947e+0
1.153e+2, 1.949e+0
1.177e+2, 1.951e+0
1.201e+2, 1.953e+0
1.225e+2, 1.955e+0
1.249e+2, 1.957e+0
1.273e+2, 1.959e+0
1.297e+2, 1.960e+0
1.321e+2, 1.962e+0
1.345e+2, 1.964e+0
1.369e+2, 1.965e+0
1.393e+2, 1.967e+0
1.417e+2, 1.968e+0
1.441e+2, 1.969e+0
1.465e+2, 1.971e+0
1.489e+2, 1.972e+0
1.513e+2, 1.973e+0
1.537e+2, 1.974e+0
1.561e+2, 1.975e+0
1.585e+2, 1.976e+0
1.609e+2, 1.977e+0
1.633e+2, 1.978e+0
1.657e+2, 1.979e+0
1.681e+2, 1.980e+0
1.705e+2, 1.980e+0
1.729e+2, 1.981e+0
1.753e+2, 1.982e+0
1.777e+2, 1.982e+0
1.801e+2, 1.983e+0
1.825e+2, 1.983e+0
1.849e+2, 1.984e+0
1.873e+2, 1.984e+0
1.897e+2, 1.985e+0
1.921e+2, 1.985e+0
1.945e+2, 1.986e+0
1.969e+2, 1.986e+0
1.993e+2, 1.986e+0
2.017e+2, 1.987e+0
2.041e+2, 1.987e+0
2.065e+2, 1.988e+0
2.089e+2, 1.988e+0
2.113e+2, 1.988e+0
2.137e+2, 1.989e+0
2.161e+2, 1.989e+0
2.185e+2, 1.989e+0
2.209e+2, 1.989e+0
2.233e+2, 1.990e+0
2.257e+2, 1.990e+0
2.281e+2, 1.990e+0
2.305e+2, 1.991e+0
2.329e+2, 1.991e+0
2.353e+2, 1.991e+0
2.377e+2, 1.991e+0
2.401e+2, 1.992e+0
2.425e+2, 1.992e+0
2.449e+2, 1.992e+0
2.473e+2, 1.993e+0
2.497e+2, 1.993e+0
2.521e+2, 1.993e+0
2.545e+2, 1.993e+0
2.569e+2, 1.994e+0
2.593e+2, 1.994e+0
2.617e+2, 1.994e+0
2.641e+2, 1.994e+0
2.665e+2, 1.995e+0
2.689e+2, 1.995e+0
2.713e+2, 1.995e+0
2.737e+2, 1.995e+0
2.761e+2, 1.996e+0
2.785e+2, 1.996e+0
2.809e+2, 1.996e+0
2.833e+2, 1.996e+0
2.857e+2, 1.996e+0
2.881e+2, 1.997e+0
2.905e+2, 1.997e+0
2.929e+2, 1.997e+0
2.953e+2, 1.997e+0
2.977e+2, 1.998e+0
3.001e+2, 1.998e+0
3.025e+2, 1.998e+0
3.049e+2, 1.998e+0
3.073e+2, 1.998e+0
3.097e+2, 1.999e+0
3.121e+2, 1.999e+0
3.145e+2, 1.999e+0
3.169e+2, 1.999e+0
3.193e+2, 1.999e+0
3.217e+2, 2.000e+0
3.241e+2, 2.000e+0
3.265e+2, 2.000e+0
3.289e+2, 2.000e+0
3.313e+2, 2.000e+0
3.337e+2, 2.001e+0
3.361e+2, 2.001e+0
3.385e+2, 2.001e+0
3.409e+2, 2.001e+0
3.433e+2, 2.001e+0
3.457e+2, 2.001e+0
3.481e+2, 2.002e+0
3.505e+2, 2.002e+0
3.529e+2, 2.002e+0
3.553e+2, 2.002e+0
3.577e+2, 2.002e+0
3.601e+2, 2.002e+0
3.625e+2, 2.003e+0
3.649e+2, 2.003e+0
3.673e+2, 2.003e+0
3.697e+2, 2.003e+0
3.721e+2, 2.003e+0
3.745e+2, 2.003e+0
3.769e+2, 2.004e+0
3.793e+2, 2.004e+0
3.817e+2, 2.004e+0
3.841e+2, 2.004e+0
3.865e+2, 2.004e+0
3.889e+2, 2.004e+0
3.913e+2, 2.005e+0
3.937e+2, 2.005e+0
3.961e+2, 2.005e+0
3.985e+2, 2.005e+0
4.009e+2, 2.005e+0
4.033e+2, 2.005e+0
4.057e+2, 2.006e+0
4.081e+2, 2.006e+0
4.105e+2, 2.006e+0
4.129e+2, 2.006e+0
4.153e+2, 2.006e+0
4.177e+2, 2.006e+0
4.201e+2, 2.006e+0
4.225e+2, 2.007e+0
4.249e+2, 2.007e+0
4.273e+2, 2.007e+0
4.297e+2, 2.007e+0
4.321e+2, 2.007e+0
4.345e+2, 2.007e+0
4.369e+2, 2.007e+0
4.393e+2, 2.008e+0
4.417e+2, 2.008e+0
4.441e+2, 2.008e+0
4.465e+2, 2.008e+0
4.489e+2, 2.008e+0
4.513e+2, 2.008e+0
4.537e+2, 2.008e+0
4.561e+2, 2.009e+0
4.585e+2, 2.009e+0
4.609e+2, 2.009e+0
4.633e+2, 2.009e+0
4.657e+2, 2.009e+0
4.681e+2, 2.009e+0
4.705e+2, 2.009e+0
4.729e+2, 2.009e+0
4.753e+2, 2.009e+0
4.777e+2, 2.010e+0
4.801e+2, 2.010e+0
4.825e+2, 2.010e+0
4.849e+2, 2.010e+0
4.873e+2, 2.010e+0
4.897e+2, 2.010e+0
4.921e+2, 2.010e+0
4.945e+2, 2.010e+0
4.969e+2, 2.011e+0
4.993e+2, 2.011e+0
5.017e+2, 2.011e+0
5.041e+2, 2.011e+0
5.065e+2, 2.011e+0
5.089e+2, 2.011e+0
5.113e+2, 2.011e+0
5.137e+2, 2.011e+0
5.161e+2, 2.011e+0
5.185e+2, 2.012e+0
5.209e+2, 2.012e+0
5.233e+2, 2.012e+0
5.257e+2, 2.012e+0
5.281e+2, 2.012e+0
5.305e+2, 2.012e+0
5.329e+2, 2.012e+0
5.353e+2, 2.012e+0
5.377e+2, 2.012e+0
5.401e+2, 2.013e+0
5.425e+2, 2.013e+0
5.449e+2, 2.013e+0
5.473e+2, 2.013e+0
5.497e+2, 2.013e+0
5.521e+2, 2.013e+0
5.545e+2, 2.013e+0
5.569e+2, 2.013e+0
5.593e+2, 2.013e+0
5.617e+2, 2.013e+0
5.641e+2, 2.014e+0
5.665e+2, 2.014e+0
5.689e+2, 2.014e+0
5.713e+2, 2.014e+0
5.737e+2, 2.014e+0
5.761e+2, 2.014e+0
5.785e+2, 2.014e+0
5.809e+2, 2.014e+0
5.833e+2, 2.014e+0
5.857e+2, 2.014e+0
5.881e+2, 2.015e+0
5.905e+2, 2.015e+0
5.929e+2, 2.015e+0
5.953e+2, 2.015e+0
5.977e+2, 2.015e+0
6.001e+2, 2.015e+0
6.025e+2, 2.015e+0
6.049e+2, 2.015e+0
6.073e+2, 2.015e+0
6.097e+2, 2.015e+0
6.121e+2, 2.016e+0
6.145e+2, 2.016e+0
6.169e+2, 2.016e+0
6.193e+2, 2.016e+0
6.217e+2, 2.016e+0
6.241e+2, 2.016e+0
6.265e+2, 2.016e+0
6.289e+2, 2.016e+0
6.313e+2, 2.016e+0
6.337e+2, 2.016e+0
6.361e+2, 2.017e+0
6.385e+2, 2.017e+0
6.409e+2, 2.017e+0
6.433e+2, 2.017e+0
6.457e+2, 2.017e+0
6.481e+2, 2.017e+0
6.505e+2, 2.017e+0
6.529e+2, 2.017e+0
6.553e+2, 2.017e+0
6.577e+2, 2.017e+0
6.601e+2, 2.018e+0
6.625e+2, 2.018e+0
6.649e+2, 2.018e+0
6.673e+2, 2.018e+0
6.697e+2, 2.018e+0
6.721e+2, 2.018e+0
6.745e+2, 2.018e+0
6.769e+2, 2.018e+0
6.793e+2, 2.018e+0
6.817e+2, 2.018e+0
6.841e+2, 2.019e+0
6.865e+2, 2.019e+0
6.889e+2, 2.019e+0
6.913e+2, 2.019e+0
6.937e+2, 2.019e+0
6.961e+2, 2.019e+0
6.985e+2, 2.019e+0
7.009e+2, 2.019e+0
7.033e+2, 2.019e+0
7.057e+2, 2.020e+0
7.081e+2, 2.020e+0
7.105e+2, 2.020e+0
7.129e+2, 2.020e+0
7.153e+2, 2.020e+0
7.177e+2, 2.020e+0
7.201e+2, 2.020e+0
7.225e+2, 2.020e+0
7.249e+2, 2.020e+0
7.273e+2, 2.021e+0
7.297e+2, 2.021e+0
7.321e+2, 2.021e+0
7.345e+2, 2.021e+0
7.369e+2, 2.021e+0
7.393e+2, 2.021e+0
7.417e+2, 2.021e+0
7.441e+2, 2.021e+0
7.465e+2, 2.022e+0
7.489e+2, 2.022e+0
7.513e+2, 2.022e+0
7.537e+2, 2.022e+0
7.561e+2, 2.022e+0
7.585e+2, 2.022e+0
7.609e+2, 2.022e+0
7.633e+2, 2.023e+0
7.657e+2, 2.023e+0
7.681e+2, 2.023e+0
7.705e+2, 2.023e+0
7.729e+2, 2.023e+0
7.753e+2, 2.023e+0
7.777e+2, 2.024e+0
7.801e+2, 2.024e+0
7.825e+2, 2.024e+0
7.849e+2, 2.024e+0
7.873e+2, 2.024e+0
7.897e+2, 2.024e+0
7.921e+2, 2.025e+0
7.945e+2, 2.025e+0
7.969e+2, 2.025e+0
7.993e+2, 2.025e+0
8.017e+2, 2.025e+0
8.041e+2, 2.025e+0
8.065e+2, 2.026e+0
8.088e+2, 2.026e+0
8.112e+2, 2.026e+0
8.136e+2, 2.026e+0
8.160e+2, 2.026e+0
8.184e+2, 2.027e+0
8.208e+2, 2.027e+0
8.232e+2, 2.027e+0
8.256e+2, 2.027e+0
8.280e+2, 2.027e+0
8.304e+2, 2.028e+0
8.328e+2, 2.028e+0
8.352e+2, 2.028e+0
8.376e+2, 2.028e+0
8.400e+2, 2.029e+0
8.424e+2, 2.029e+0
8.448e+2, 2.029e+0
8.472e+2, 2.029e+0
8.496e+2, 2.030e+0
8.520e+2, 2.030e+0
8.544e+2, 2.030e+0
8.568e+2, 2.030e+0
8.592e+2, 2.031e+0
8.616e+2, 2.031e+0
8.640e+2, 2.031e+0
8.664e+2, 2.031e+0
8.688e+2, 2.032e+0
8.712e+2, 2.032e+0
8.736e+2, 2.032e+0
8.760e+2, 2.032e+0
8.784e+2, 2.033e+0
8.808e+2, 2.033e+0
8.832e+2, 2.033e+0
8.856e+2, 2.033e+0
8.880e+2, 2.034e+0
8.904e+2, 2.034e+0
8.928e+2, 2.034e+0
8.952e+2, 2.035e+0
8.976e+2, 2.035e+0
9.000e+2, 2.035e+0
9.024e+2, 2.035e+0
9.048e+2, 2.036e+0
9.072e+2, 2.036e+0
9.096e+2, 2.036e+0
9.120e+2, 2.037e+0
9.144e+2, 2.037e+0
9.168e+2, 2.037e+0
9.192e+2, 2.038e+0
9.216e+2, 2.038e+0
9.240e+2, 2.038e+0
9.264e+2, 2.039e+0
9.288e+2, 2.039e+0
9.312e+2, 2.039e+0
9.336e+2, 2.040e+0
9.360e+2, 2.040e+0
9.384e+2, 2.040e+0
9.408e+2, 2.041e+0
9.432e+2, 2.041e+0
9.456e+2, 2.041e+0
9.480e+2, 2.042e+0
9.504e+2, 2.042e+0
9.528e+2, 2.042e+0
9.552e+2, 2.043e+0
9.576e+2, 2.043e+0
9.600e+2, 2.043e+0
9.624e+2, 2.044e+0
9.648e+2, 2.044e+0
9.672e+2, 2.045e+0
9.696e+2, 2.045e+0
9.720e+2, 2.045e+0
9.744e+2, 2.046e+0
9.768e+2, 2.046e+0
9.792e+2, 2.046e+0
9.816e+2, 2.047e+0
9.840e+2, 2.047e+0
9.864e+2, 2.048e+0
9.888e+2, 2.048e+0
9.912e+2, 2.048e+0
9.936e+2, 2.049e+0
9.960e+2, 2.049e+0
9.984e+2, 2.050e+0
1.001e+3, 2.050e+0
1.003e+3, 2.050e+0
1.006e+3, 2.051e+0
1.008e+3, 2.051e+0
1.010e+3, 2.052e+0
1.013e+3, 2.052e+0
1.015e+3, 2.052e+0
1.018e+3, 2.053e+0
1.020e+3, 2.053e+0
1.022e+3, 2.054e+0
1.025e+3, 2.054e+0
1.027e+3, 2.055e+0
1.030e+3, 2.055e+0
1.032e+3, 2.055e+0
1.034e+3, 2.056e+0
1.037e+3, 2.056e+0
1.039e+3, 2.057e+0
1.042e+3, 2.057e+0
1.044e+3, 2.058e+0
1.046e+3, 2.058e+0
1.049e+3, 2.059e+0
1.051e+3, 2.059e+0
1.054e+3, 2.059e+0
1.056e+3, 2.060e+0
1.058e+3, 2.060e+0
1.061e+3, 2.061e+0
1.063e+3, 2.061e+0
1.066e+3, 2.062e+0
1.068e+3, 2.062e+0
1.070e+3, 2.063e+0
1.073e+3, 2.063e+0
1.075e+3, 2.064e+0
1.078e+3, 2.064e+0
1.080e+3, 2.065e+0
1.082e+3, 2.065e+0
1.085e+3, 2.066e+0
1.087e+3, 2.066e+0
1.090e+3, 2.067e+0
1.092e+3, 2.067e+0
1.094e+3, 2.068e+0
1.097e+3, 2.068e+0
1.099e+3, 2.069e+0
1.102e+3, 2.069e+0
1.104e+3, 2.070e+0
1.106e+3, 2.070e+0
1.109e+3, 2.071e+0
1.111e+3, 2.071e+0
1.114e+3, 2.071e+0
1.116e+3, 2.072e+0
1.118e+3, 2.072e+0
1.121e+3, 2.073e+0
1.123e+3, 2.073e+0
1.126e+3, 2.074e+0
1.128e+3, 2.074e+0
1.130e+3, 2.075e+0
1.133e+3, 2.076e+0
1.135e+3, 2.076e+0
1.138e+3, 2.077e+0
1.140e+3, 2.077e+0
1.142e+3, 2.078e+0
1.145e+3, 2.078e+0
1.147e+3, 2.079e+0
1.150e+3, 2.079e+0
1.152e+3, 2.080e+0
1.154e+3, 2.080e+0
1.157e+3, 2.081e+0
1.159e+3, 2.081e+0
1.162e+3, 2.082e+0
1.164e+3, 2.082e+0
1.166e+3, 2.083e+0
1.169e+3, 2.083e+0
1.171e+3, 2.084e+0
1.174e+3, 2.085e+0
1.176e+3, 2.085e+0
1.178e+3, 2.086e+0
1.181e+3, 2.086e+0
1.183e+3, 2.087e+0
1.186e+3, 2.087e+0
1.188e+3, 2.088e+0
1.190e+3, 2.088e+0
1.193e+3, 2.089e+0
1.195e+3, 2.089e+0
1.198e+3, 2.090e+0
1.200e+3, 2.091e+0
1.202e+3, 2.091e+0
1.205e+3, 2.092e+0
1.207e+3, 2.092e+0
1.210e+3, 2.093e+0
1.212e+3, 2.093e+0
1.214e+3, 2.094e+0
1.217e+3, 2.095e+0
1.219e+3, 2.095e+0
1.222e+3, 2.096e+0
1.224e+3, 2.096e+0
1.226e+3, 2.097e+0
1.229e+3, 2.098e+0
1.231e+3, 2.098e+0
1.234e+3, 2.099e+0
1.236e+3, 2.099e+0
1.238e+3, 2.100e+0
1.241e+3, 2.101e+0
1.243e+3, 2.101e+0
1.246e+3, 2.102e+0
1.248e+3, 2.102e+0
1.250e+3, 2.103e+0
1.253e+3, 2.104e+0
1.255e+3, 2.104e+0
1.258e+3, 2.105e+0
1.260e+3, 2.105e+0
1.262e+3, 2.106e+0
1.265e+3, 2.107e+0
1.267e+3, 2.107e+0
1.270e+3, 2.108e+0
1.272e+3, 2.109e+0
1.274e+3, 2.109e+0
1.277e+3, 2.110e+0
1.279e+3, 2.110e+0
1.282e+3, 2.111e+0
1.284e+3, 2.112e+0
1.286e+3, 2.112e+0
1.289e+3, 2.113e+0
1.291e+3, 2.113e+0
1.294e+3, 2.114e+0
1.296e+3, 2.115e+0
1.298e+3, 2.115e+0
1.301e+3, 2.116e+0
1.303e+3, 2.117e+0
1.306e+3, 2.117e+0
1.308e+3, 2.118e+0
1.310e+3, 2.118e+0
1.313e+3, 2.119e+0
1.315e+3, 2.120e+0
1.318e+3, 2.120e+0
1.320e+3, 2.121e+0
1.322e+3, 2.122e+0
1.325e+3, 2.122e+0
1.327e+3, 2.123e+0
1.330e+3, 2.124e+0
1.332e+3, 2.124e+0
1.334e+3, 2.125e+0
1.337e+3, 2.125e+0
1.339e+3, 2.126e+0
1.342e+3, 2.127e+0
1.344e+3, 2.127e+0
1.346e+3, 2.128e+0
1.349e+3, 2.129e+0
1.351e+3, 2.129e+0
1.354e+3, 2.130e+0
1.356e+3, 2.131e+0
1.358e+3, 2.131e+0
1.361e+3, 2.132e+0
1.363e+3, 2.133e+0
1.366e+3, 2.133e+0
1.368e+3, 2.134e+0
1.370e+3, 2.135e+0
1.373e+3, 2.135e+0
1.375e+3, 2.136e+0
1.378e+3, 2.137e+0
1.380e+3, 2.138e+0
1.382e+3, 2.138e+0
1.385e+3, 2.139e+0
1.387e+3, 2.140e+0
1.390e+3, 2.140e+0
1.392e+3, 2.141e+0
1.394e+3, 2.142e+0
1.397e+3, 2.143e+0
1.399e+3, 2.143e+0
1.402e+3, 2.144e+0
1.404e+3, 2.145e+0
1.406e+3, 2.146e+0
1.409e+3, 2.146e+0
1.411e+3, 2.147e+0
1.414e+3, 2.148e+0
1.416e+3, 2.149e+0
1.418e+3, 2.150e+0
1.421e+3, 2.150e+0
1.423e+3, 2.151e+0
1.425e+3, 2.152e+0
1.428e+3, 2.153e+0
1.430e+3, 2.154e+0
1.433e+3, 2.154e+0
1.435e+3, 2.155e+0
1.437e+3, 2.156e+0
1.440e+3, 2.157e+0
1.442e+3, 2.158e+0
1.445e+3, 2.158e+0
1.447e+3, 2.159e+0
1.449e+3, 2.160e+0
1.452e+3, 2.161e+0
1.454e+3, 2.162e+0
1.457e+3, 2.162e+0
1.459e+3, 2.163e+0
1.461e+3, 2.164e+0
1.464e+3, 2.165e+0
1.466e+3, 2.165e+0
1.469e+3, 2.166e+0
1.471e+3, 2.167e+0
1.473e+3, 2.168e+0
1.476e+3, 2.168e+0
1.478e+3, 2.169e+0
1.481e+3, 2.170e+0
1.483e+3, 2.171e+0
1.485e+3, 2.171e+0
1.488e+3, 2.172e+0
1.490e+3, 2.173e+0
1.493e+3, 2.174e+0
1.495e+3, 2.175e+0
1.497e+3, 2.175e+0
1.500e+3, 2.176e+0
1.502e+3, 2.177e+0
1.505e+3, 2.178e+0
1.507e+3, 2.179e+0
1.509e+3, 2.180e+0
1.512e+3, 2.180e+0
1.514e+3, 2.181e+0
1.517e+3, 2.182e+0
1.519e+3, 2.183e+0
1.521e+3, 2.184e+0
1.524e+3, 2.185e+0
1.526e+3, 2.185e+0
1.529e+3, 2.186e+0
1.531e+3, 2.187e+0
1.533e+3, 2.188e+0
1.536e+3, 2.189e+0
1.538e+3, 2.190e+0
1.541e+3, 2.190e+0
1.543e+3, 2.191e+0
1.545e+3, 2.192e+0
1.548e+3, 2.193e+0
1.550e+3, 2.194e+0
1.553e+3, 2.194e+0
1.555e+3, 2.195e+0
1.557e+3, 2.196e+0
1.560e+3, 2.197e+0
1.562e+3, 2.198e+0
1.565e+3, 2.199e+0
1.567e+3, 2.200e+0
1.569e+3, 2.200e+0
1.572e+3, 2.201e+0
1.574e+3, 2.202e+0
1.577e+3, 2.203e+0
1.579e+3, 2.204e+0
1.581e+3, 2.205e+0
1.584e+3, 2.206e+0
1.586e+3, 2.207e+0
1.589e+3, 2.208e+0
1.591e+3, 2.209e+0
1.593e+3, 2.209e+0
1.596e+3, 2.210e+0
1.598e+3, 2.211e+0
1.601e+3, 2.212e+0
1.603e+3, 2.213e+0
1.605e+3, 2.214e+0
1.608e+3, 2.215e+0
1.610e+3, 2.216e+0
1.613e+3, 2.217e+0
1.615e+3, 2.218e+0
1.617e+3, 2.219e+0
1.620e+3, 2.220e+0
1.622e+3, 2.221e+0
1.625e+3, 2.222e+0
1.627e+3, 2.223e+0
1.629e+3, 2.224e+0
1.632e+3, 2.225e+0
1.634e+3, 2.226e+0
1.637e+3, 2.227e+0
1.639e+3, 2.229e+0
1.641e+3, 2.230e+0
1.644e+3, 2.231e+0
1.646e+3, 2.232e+0
1.649e+3, 2.233e+0
1.651e+3, 2.234e+0
1.653e+3, 2.235e+0
1.656e+3, 2.236e+0
1.658e+3, 2.237e+0
1.661e+3, 2.239e+0
1.663e+3, 2.240e+0
1.665e+3, 2.241e+0
1.668e+3, 2.242e+0
1.670e+3, 2.243e+0
1.673e+3, 2.245e+0
1.675e+3, 2.246e+0
1.677e+3, 2.247e+0
1.680e+3, 2.248e+0
1.682e+3, 2.249e+0
1.685e+3, 2.251e+0
1.687e+3, 2.252e+0
1.689e+3, 2.253e+0
1.692e+3, 2.255e+0
1.694e+3, 2.256e+0
1.697e+3, 2.257e+0
1.699e+3, 2.259e+0
1.701e+3, 2.260e+0
1.704e+3, 2.261e+0
1.706e+3, 2.263e+0
1.709e+3, 2.264e+0
1.711e+3, 2.266e+0
1.713e+3, 2.267e+0
1.716e+3, 2.269e+0
1.718e+3, 2.270e+0
1.721e+3, 2.272e+0
1.723e+3, 2.273e+0
1.725e+3, 2.275e+0
1.728e+3, 2.276e+0
1.730e+3, 2.278e+0
1.733e+3, 2.279e+0
1.735e+3, 2.281e+0
1.737e+3, 2.283e+0
1.740e+3, 2.284e+0
1.742e+3, 2.286e+0
1.745e+3, 2.288e+0
1.747e+3, 2.290e+0
1.749e+3, 2.292e+0
1.752e+3, 2.294e+0
1.754e+3, 2.295e+0
1.757e+3, 2.297e+0
1.759e+3, 2.299e+0
1.761e+3, 2.301e+0
1.764e+3, 2.303e+0
1.766e+3, 2.306e+0
1.769e+3, 2.308e+0
1.771e+3, 2.310e+0
1.773e+3, 2.312e+0
1.776e+3, 2.315e+0
1.778e+3, 2.317e+0
1.781e+3, 2.320e+0
1.783e+3, 2.322e+0
1.785e+3, 2.325e+0
1.788e+3, 2.327e+0
1.790e+3, 2.330e+0
1.793e+3, 2.333e+0
1.795e+3, 2.335e+0
1.797e+3, 2.338e+0
1.800e+3, 2.341e+0
1.802e+3, 2.344e+0
1.805e+3, 2.348e+0
1.807e+3, 2.351e+0
1.809e+3, 2.354e+0
1.812e+3, 2.357e+0
1.814e+3, 2.361e+0
1.817e+3, 2.365e+0
1.819e+3, 2.368e+0
1.821e+3, 2.372e+0
1.824e+3, 2.376e+0
1.826e+3, 2.380e+0
1.829e+3, 2.384e+0
1.831e+3, 2.388e+0
1.833e+3, 2.392e+0
1.836e+3, 2.397e+0
1.838e+3, 2.401e+0
1.841e+3, 2.406e+0
1.843e+3, 2.410e+0
1.845e+3, 2.415e+0
1.848e+3, 2.420e+0
1.850e+3, 2.425e+0
1.853e+3, 2.431e+0
1.855e+3, 2.436e+0
1.857e+3, 2.442e+0
1.860e+3, 2.448e+0
1.862e+3, 2.454e+0
1.865e+3, 2.460e+0
1.867e+3, 2.467e+0
1.869e+3, 2.474e+0
1.872e+3, 2.481e+0
1.874e+3, 2.489e+0
1.877e+3, 2.497e+0
1.879e+3, 2.070e+0
1.881e+3, 1.975e+0
1.884e+3, 1.936e+0
1.886e+3, 1.907e+0
1.889e+3, 1.886e+0
1.891e+3, 1.869e+0
1.893e+3, 1.855e+0
1.896e+3, 1.843e+0
1.898e+3, 1.833e+0
1.901e+3, 1.824e+0
1.903e+3, 1.817e+0
1.905e+3, 1.810e+0
1.908e+3, 1.804e+0
1.910e+3, 1.798e+0
1.913e+3, 1.793e+0
1.915e+3, 1.788e+0
1.917e+3, 1.784e+0
1.920e+3, 1.780e+0
1.922e+3, 1.777e+0
1.925e+3, 1.774e+0
1.927e+3, 1.771e+0
1.929e+3, 1.768e+0
1.932e+3, 1.765e+0
1.934e+3, 1.763e+0
1.937e+3, 1.761e+0
1.939e+3, 1.759e+0
1.941e+3, 1.757e+0
1.944e+3, 1.755e+0
1.946e+3, 1.753e+0
1.949e+3, 1.752e+0
1.951e+3, 1.751e+0
1.953e+3, 1.749e+0
1.956e+3, 1.748e+0
1.958e+3, 1.747e+0
1.961e+3, 1.746e+0
1.963e+3, 1.745e+0
1.965e+3, 1.744e+0
1.968e+3, 1.743e+0
1.970e+3, 1.742e+0
1.973e+3, 1.741e+0
1.975e+3, 1.740e+0
1.977e+3, 1.740e+0
1.980e+3, 1.739e+0
1.982e+3, 1.738e+0
1.985e+3, 1.738e+0
1.987e+3, 1.737e+0
1.989e+3, 1.737e+0
1.992e+3, 1.736e+0
1.994e+3, 1.736e+0
1.997e+3, 1.735e+0
1.999e+3, 1.735e+0
2.001e+3, 1.734e+0
2.004e+3, 1.734e+0
2.006e+3, 1.734e+0
2.009e+3, 1.733e+0
2.011e+3, 1.733e+0
2.013e+3, 1.733e+0
2.016e+3, 1.732e+0
2.018e+3, 1.732e+0
2.021e+3, 1.732e+0
2.023e+3, 1.731e+0
2.025e+3, 1.731e+0
2.028e+3, 1.731e+0
2.030e+3, 1.731e+0
2.033e+3, 1.730e+0
2.035e+3, 1.730e+0
2.037e+3, 1.730e+0
2.040e+3, 1.730e+0
2.042e+3, 1.729e+0
2.045e+3, 1.729e+0
2.047e+3, 1.729e+0
2.049e+3, 1.729e+0
2.052e+3, 1.728e+0
2.054e+3, 1.728e+0
2.057e+3, 1.728e+0
2.059e+3, 1.728e+0
2.061e+3, 1.728e+0
2.064e+3, 1.727e+0
2.066e+3, 1.727e+0
2.069e+3, 1.727e+0
2.071e+3, 1.727e+0
2.073e+3, 1.727e+0
2.076e+3, 1.727e+0
2.078e+3, 1.726e+0
2.081e+3, 1.726e+0
2.083e+3, 1.726e+0
2.085e+3, 1.726e+0
2.088e+3, 1.726e+0
2.090e+3, 1.725e+0
2.093e+3, 1.725e+0
2.095e+3, 1.725e+0
2.097e+3, 1.725e+0
2.100e+3, 1.725e+0
2.102e+3, 1.725e+0
2.105e+3, 1.724e+0
2.107e+3, 1.724e+0
2.109e+3, 1.724e+0
2.112e+3, 1.724e+0
2.114e+3, 1.724e+0
2.117e+3, 1.724e+0
2.119e+3, 1.723e+0
2.121e+3, 1.723e+0
2.124e+3, 1.723e+0
2.126e+3, 1.723e+0
2.129e+3, 1.723e+0
2.131e+3, 1.723e+0
2.133e+3, 1.723e+0
2.136e+3, 1.722e+0
2.138e+3, 1.722e+0
2.141e+3, 1.722e+0
2.143e+3, 1.722e+0
2.145e+3, 1.722e+0
2.148e+3, 1.722e+0
2.150e+3, 1.722e+0
2.153e+3, 1.721e+0
2.155e+3, 1.721e+0
2.157e+3, 1.721e+0
2.160e+3, 1.721e+0
2.162e+3, 1.721e+0
2.165e+3, 1.721e+0
2.167e+3, 1.720e+0
2.169e+3, 1.720e+0
2.172e+3, 1.720e+0
2.174e+3, 1.720e+0
2.177e+3, 1.720e+0
2.179e+3, 1.720e+0
2.181e+3, 1.720e+0
2.184e+3, 1.719e+0
2.186e+3, 1.719e+0
2.189e+3, 1.719e+0
2.191e+3, 1.719e+0
2.193e+3, 1.719e+0
2.196e+3, 1.719e+0
2.198e+3, 1.719e+0
2.201e+3, 1.718e+0
2.203e+3, 1.718e+0
2.206e+3, 1.718e+0
2.208e+3, 1.718e+0
2.210e+3, 1.718e+0
2.213e+3, 1.718e+0
2.215e+3, 1.718e+0
2.218e+3, 1.717e+0
2.220e+3, 1.717e+0
2.222e+3, 1.717e+0
2.225e+3, 1.717e+0
2.227e+3, 1.717e+0
2.230e+3, 1.717e+0
2.232e+3, 1.717e+0
2.234e+3, 1.717e+0
2.237e+3, 1.716e+0
2.239e+3, 1.716e+0
2.242e+3, 1.716e+0
2.244e+3, 1.716e+0
2.246e+3, 1.716e+0
2.249e+3, 1.716e+0
2.251e+3, 1.716e+0
2.254e+3, 1.716e+0
2.256e+3, 1.715e+0
2.258e+3, 1.715e+0
2.261e+3, 1.715e+0
2.263e+3, 1.715e+0
2.266e+3, 1.715e+0
2.268e+3, 1.715e+0
2.270e+3, 1.715e+0
2.273e+3, 1.715e+0
2.275e+3, 1.714e+0
2.278e+3, 1.714e+0
2.280e+3, 1.714e+0
2.282e+3, 1.714e+0
2.285e+3, 1.714e+0
2.287e+3, 1.714e+0
2.290e+3, 1.714e+0
2.292e+3, 1.714e+0
2.294e+3, 1.713e+0
2.297e+3, 1.713e+0
2.299e+3, 1.713e+0
2.302e+3, 1.713e+0
2.304e+3, 1.713e+0
2.306e+3, 1.713e+0
2.309e+3, 1.713e+0
2.311e+3, 1.713e+0
2.314e+3, 1.713e+0
2.316e+3, 1.712e+0
2.318e+3, 1.712e+0
2.321e+3, 1.712e+0
2.323e+3, 1.712e+0
2.326e+3, 1.712e+0
2.328e+3, 1.712e+0
2.330e+3, 1.712e+0
2.333e+3, 1.712e+0
2.335e+3, 1.712e+0
2.338e+3, 1.711e+0
2.340e+3, 1.711e+0
2.342e+3, 1.711e+0
2.345e+3, 1.711e+0
2.347e+3, 1.711e+0
2.350e+3, 1.711e+0
2.352e+3, 1.711e+0
2.354e+3, 1.711e+0
2.357e+3, 1.711e+0
2.359e+3, 1.710e+0
2.362e+3, 1.710e+0
2.364e+3, 1.710e+0
2.366e+3, 1.710e+0
2.369e+3, 1.710e+0
2.371e+3, 1.710e+0
2.374e+3, 1.710e+0
2.376e+3, 1.710e+0
2.378e+3, 1.710e+0
2.381e+3, 1.709e+0
2.383e+3, 1.709e+0
2.386e+3, 1.709e+0
2.388e+3, 1.709e+0
2.390e+3, 1.709e+0
2.393e+3, 1.709e+0
2.395e+3, 1.709e+0
2.398e+3, 1.709e+0
2.400e+3, 1.709e+0
2.402e+3, 1.708e+0
2.405e+3, 1.708e+0
2.407e+3, 1.708e+0
2.410e+3, 1.708e+0
2.412e+3, 1.708e+0
2.415e+3, 1.708e+0
2.417e+3, 1.708e+0
2.419e+3, 1.708e+0
2.422e+3, 1.708e+0
2.424e+3, 1.708e+0
2.427e+3, 1.707e+0
2.429e+3, 1.707e+0
2.431e+3, 1.707e+0
2.434e+3, 1.707e+0
2.436e+3, 1.707e+0
2.439e+3, 1.707e+0
2.441e+3, 1.707e+0
2.443e+3, 1.707e+0
2.446e+3, 1.707e+0
2.448e+3, 1.707e+0
2.451e+3, 1.706e+0
2.453e+3, 1.706e+0
2.455e+3, 1.706e+0
2.458e+3, 1.706e+0
2.460e+3, 1.706e+0
2.463e+3, 1.706e+0
2.465e+3, 1.706e+0
2.467e+3, 1.706e+0
2.470e+3, 1.706e+0
2.472e+3, 1.705e+0
2.475e+3, 1.705e+0
2.477e+3, 1.705e+0
2.479e+3, 1.705e+0
2.482e+3, 1.705e+0
2.484e+3, 1.705e+0
2.487e+3, 1.705e+0
2.489e+3, 1.705e+0
2.491e+3, 1.705e+0
2.494e+3, 1.705e+0
2.496e+3, 1.704e+0
2.499e+3, 1.704e+0
2.501e+3, 1.704e+0
2.503e+3, 1.704e+0
2.506e+3, 1.704e+0
2.508e+3, 1.704e+0
2.511e+3, 1.704e+0
2.513e+3, 1.704e+0
2.515e+3, 1.704e+0
2.518e+3, 1.704e+0
2.520e+3, 1.703e+0
2.523e+3, 1.703e+0
2.525e+3, 1.703e+0
2.527e+3, 1.703e+0
2.530e+3, 1.703e+0
2.532e+3, 1.703e+0
2.535e+3, 1.703e+0
2.537e+3, 1.703e+0
2.539e+3, 1.703e+0
2.542e+3, 1.703e+0
2.544e+3, 1.702e+0
2.547e+3, 1.702e+0
2.549e+3, 1.702e+0
2.551e+3, 1.702e+0
2.554e+3, 1.702e+0
2.556e+3, 1.702e+0
2.559e+3, 1.702e+0
2.561e+3, 1.702e+0
2.563e+3, 1.702e+0
2.566e+3, 1.702e+0
2.568e+3, 1.701e+0
2.571e+3, 1.701e+0
2.573e+3, 1.701e+0
2.575e+3, 1.701e+0
2.578e+3, 1.701e+0
2.580e+3, 1.701e+0
2.583e+3, 1.701e+0
2.585e+3, 1.701e+0
2.587e+3, 1.701e+0
2.590e+3, 1.700e+0
2.592e+3, 1.700e+0
2.595e+3, 1.700e+0
2.597e+3, 1.700e+0
2.599e+3, 1.700e+0
2.602e+3, 1.700e+0
2.604e+3, 1.700e+0
2.607e+3, 1.700e+0
2.609e+3, 1.700e+0
2.611e+3, 1.699e+0
2.614e+3, 1.699e+0
2.616e+3, 1.699e+0
2.619e+3, 1.699e+0
2.621e+3, 1.699e+0
2.624e+3, 1.699e+0
2.626e+3, 1.699e+0
2.628e+3, 1.699e+0
2.631e+3, 1.698e+0
2.633e+3, 1.698e+0
2.636e+3, 1.698e+0
2.638e+3, 1.698e+0
2.640e+3, 1.698e+0
2.643e+3, 1.698e+0
2.645e+3, 1.698e+0
2.648e+3, 1.697e+0
2.650e+3, 1.697e+0
2.652e+3, 1.697e+0
2.655e+3, 1.697e+0
2.657e+3, 1.697e+0
2.660e+3, 1.697e+0
2.662e+3, 1.697e+0
2.664e+3, 1.696e+0
2.667e+3, 1.696e+0
2.669e+3, 1.696e+0
2.672e+3, 1.696e+0
2.674e+3, 1.696e+0
2.676e+3, 1.696e+0
2.679e+3, 1.695e+0
2.681e+3, 1.695e+0
2.684e+3, 1.695e+0
2.686e+3, 1.695e+0
2.688e+3, 1.695e+0
2.691e+3, 1.695e+0
2.693e+3, 1.694e+0
2.696e+3, 1.694e+0
2.698e+3, 1.694e+0
2.700e+3, 1.694e+0
2.703e+3, 1.694e+0
2.705e+3, 1.693e+0
2.708e+3, 1.693e+0
2.710e+3, 1.693e+0
2.712e+3, 1.693e+0
2.715e+3, 1.693e+0
2.717e+3, 1.692e+0
2.720e+3, 1.692e+0
2.722e+3, 1.692e+0
2.724e+3, 1.692e+0
2.727e+3, 1.691e+0
2.729e+3, 1.691e+0
2.732e+3, 1.691e+0
2.734e+3, 1.691e+0
2.736e+3, 1.691e+0
2.739e+3, 1.690e+0
2.741e+3, 1.690e+0
2.744e+3, 1.690e+0
2.746e+3, 1.690e+0
2.748e+3, 1.689e+0
2.751e+3, 1.689e+0
2.753e+3, 1.689e+0
2.756e+3, 1.688e+0
2.758e+3, 1.688e+0
2.760e+3, 1.688e+0
2.763e+3, 1.688e+0
2.765e+3, 1.687e+0
2.768e+3, 1.687e+0
2.770e+3, 1.687e+0
2.772e+3, 1.686e+0
2.775e+3, 1.686e+0
2.777e+3, 1.686e+0
2.780e+3, 1.686e+0
2.782e+3, 1.685e+0
2.784e+3, 1.685e+0
2.787e+3, 1.685e+0
2.789e+3, 1.684e+0
2.792e+3, 1.684e+0
2.794e+3, 1.684e+0
2.796e+3, 1.683e+0
2.799e+3, 1.683e+0
2.801e+3, 1.683e+0
2.804e+3, 1.682e+0
2.806e+3, 1.682e+0
2.808e+3, 1.682e+0
2.811e+3, 1.681e+0
2.813e+3, 1.681e+0
2.816e+3, 1.681e+0
2.818e+3, 1.681e+0
2.821e+3, 1.680e+0
2.823e+3, 1.680e+0
2.825e+3, 1.679e+0
2.828e+3, 1.679e+0
2.830e+3, 1.679e+0
2.833e+3, 1.678e+0
2.835e+3, 1.678e+0
2.837e+3, 1.678e+0
2.840e+3, 1.677e+0
2.842e+3, 1.677e+0
2.845e+3, 1.676e+0
2.847e+3, 1.676e+0
2.849e+3, 1.676e+0
2.852e+3, 1.675e+0
2.854e+3, 1.675e+0
2.857e+3, 1.674e+0
2.859e+3, 1.674e+0
2.861e+3, 1.674e+0
2.864e+3, 1.673e+0
2.866e+3, 1.673e+0
2.869e+3, 1.672e+0
2.871e+3, 1.672e+0
2.873e+3, 1.671e+0
2.876e+3, 1.671e+0
2.878e+3, 1.671e+0
2.881e+3, 1.670e+0
2.883e+3, 1.670e+0
2.885e+3, 1.669e+0
2.888e+3, 1.669e+0
2.890e+3, 1.668e+0
2.893e+3, 1.668e+0
2.895e+3, 1.667e+0
2.897e+3, 1.667e+0
2.900e+3, 1.666e+0
2.902e+3, 1.666e+0
2.905e+3, 1.665e+0
2.907e+3, 1.665e+0
2.909e+3, 1.664e+0
2.912e+3, 1.664e+0
2.914e+3, 1.663e+0
2.917e+3, 1.663e+0
2.919e+3, 1.662e+0
2.921e+3, 1.662e+0
2.924e+3, 1.661e+0
2.926e+3, 1.661e+0
2.929e+3, 1.660e+0
2.931e+3, 1.659e+0
2.933e+3, 1.659e+0
2.936e+3, 1.658e+0
2.938e+3, 1.658e+0
2.941e+3, 1.657e+0
2.943e+3, 1.657e+0
2.945e+3, 1.656e+0
2.948e+3, 1.656e+0
2.950e+3, 1.655e+0
2.953e+3, 1.654e+0
2.955e+3, 1.654e+0
2.957e+3, 1.653e+0
2.960e+3, 1.653e+0
2.962e+3, 1.652e+0
2.965e+3, 1.652e+0
2.967e+3, 1.651e+0
2.969e+3, 1.650e+0
2.972e+3, 1.650e+0
2.974e+3, 1.649e+0
2.977e+3, 1.649e+0
2.979e+3, 1.648e+0
2.981e+3, 1.648e+0
2.984e+3, 1.647e+0
2.986e+3, 1.646e+0
2.989e+3, 1.646e+0
2.991e+3, 1.645e+0
2.993e+3, 1.645e+0
2.996e+3, 1.644e+0
2.998e+3, 1.643e+0
3.001e+3, 1.643e+0
3.003e+3, 1.642e+0
3.005e+3, 1.642e+0
3.008e+3, 1.641e+0
3.010e+3, 1.641e+0
3.013e+3, 1.640e+0
3.015e+3, 1.639e+0
3.017e+3, 1.639e+0
3.020e+3, 1.638e+0
3.022e+3, 1.638e+0
3.025e+3, 1.637e+0
3.027e+3, 1.636e+0
3.030e+3, 1.636e+0
3.032e+3, 1.635e+0
3.034e+3, 1.635e+0
3.037e+3, 1.634e+0
3.039e+3, 1.633e+0
3.042e+3, 1.633e+0
3.044e+3, 1.632e+0
3.046e+3, 1.632e+0
3.049e+3, 1.631e+0
3.051e+3, 1.631e+0
3.054e+3, 1.630e+0
3.056e+3, 1.629e+0
3.058e+3, 1.629e+0
3.061e+3, 1.628e+0
3.063e+3, 1.628e+0
3.066e+3, 1.627e+0
3.068e+3, 1.626e+0
3.070e+3, 1.626e+0
3.073e+3, 1.625e+0
3.075e+3, 1.624e+0
3.078e+3, 1.624e+0
3.080e+3, 1.623e+0
3.082e+3, 1.623e+0
3.085e+3, 1.622e+0
3.087e+3, 1.621e+0
3.090e+3, 1.621e+0
3.092e+3, 1.620e+0
3.094e+3, 1.620e+0
3.097e+3, 1.619e+0
3.099e+3, 1.618e+0
3.102e+3, 1.618e+0
3.104e+3, 1.617e+0
3.106e+3, 1.616e+0
3.109e+3, 1.616e+0
3.111e+3, 1.615e+0
3.114e+3, 1.615e+0
3.116e+3, 1.614e+0
3.118e+3, 1.613e+0
3.121e+3, 1.613e+0
3.123e+3, 1.612e+0
3.126e+3, 1.611e+0
3.128e+3, 1.611e+0
3.130e+3, 1.610e+0
3.133e+3, 1.610e+0
3.135e+3, 1.609e+0
3.138e+3, 1.608e+0
3.140e+3, 1.608e+0
3.142e+3, 1.607e+0
3.145e+3, 1.606e+0
3.147e+3, 1.606e+0
3.150e+3, 1.605e+0
3.152e+3, 1.604e+0
3.154e+3, 1.604e+0
3.157e+3, 1.603e+0
3.159e+3, 1.602e+0
3.162e+3, 1.602e+0
3.164e+3, 1.601e+0
3.166e+3, 1.600e+0
3.169e+3, 1.600e+0
3.171e+3, 1.599e+0
3.174e+3, 1.598e+0
3.176e+3, 1.598e+0
3.178e+3, 1.597e+0
3.181e+3, 1.596e+0
3.183e+3, 1.596e+0
3.186e+3, 1.595e+0
3.188e+3, 1.594e+0
3.190e+3, 1.594e+0
3.193e+3, 1.593e+0
3.195e+3, 1.592e+0
3.198e+3, 1.592e+0
3.200e+3, 1.591e+0
3.202e+3, 1.590e+0
3.205e+3, 1.589e+0
3.207e+3, 1.589e+0
3.210e+3, 1.588e+0
3.212e+3, 1.587e+0
3.214e+3, 1.587e+0
3.217e+3, 1.586e+0
3.219e+3, 1.585e+0
3.222e+3, 1.584e+0
3.224e+3, 1.584e+0
3.226e+3, 1.583e+0
3.229e+3, 1.582e+0
3.231e+3, 1.581e+0
3.234e+3, 1.580e+0
3.236e+3, 1.580e+0
3.239e+3, 1.579e+0
3.241e+3, 1.578e+0
3.243e+3, 1.577e+0
3.246e+3, 1.576e+0
3.248e+3, 1.576e+0
3.251e+3, 1.575e+0
3.253e+3, 1.574e+0
3.255e+3, 1.573e+0
3.258e+3, 1.572e+0
3.260e+3, 1.571e+0
3.263e+3, 1.570e+0
3.265e+3, 1.570e+0
3.267e+3, 1.569e+0
3.270e+3, 1.568e+0
3.272e+3, 1.567e+0
3.275e+3, 1.566e+0
3.277e+3, 1.565e+0
3.279e+3, 1.564e+0
3.282e+3, 1.563e+0
3.284e+3, 1.562e+0
3.287e+3, 1.561e+0
3.289e+3, 1.560e+0
3.291e+3, 1.559e+0
3.294e+3, 1.558e+0
3.296e+3, 1.557e+0
3.299e+3, 1.556e+0
3.301e+3, 1.555e+0
3.303e+3, 1.554e+0
3.306e+3, 1.553e+0
3.308e+3, 1.552e+0
3.311e+3, 1.551e+0
3.313e+3, 1.550e+0
3.315e+3, 1.549e+0
3.318e+3, 1.547e+0
3.320e+3, 1.546e+0
3.323e+3, 1.545e+0
3.325e+3, 1.544e+0
3.327e+3, 1.543e+0
3.330e+3, 1.542e+0
3.332e+3, 1.541e+0
3.335e+3, 1.539e+0
3.337e+3, 1.538e+0
3.339e+3, 1.537e+0
3.342e+3, 1.536e+0
3.344e+3, 1.534e+0
3.347e+3, 1.533e+0
3.349e+3, 1.532e+0
3.351e+3, 1.531e+0
3.354e+3, 1.529e+0
3.356e+3, 1.528e+0
3.359e+3, 1.527e+0
3.361e+3, 1.525e+0
3.363e+3, 1.524e+0
3.366e+3, 1.523e+0
3.368e+3, 1.521e+0
3.371e+3, 1.520e+0
3.373e+3, 1.518e+0
3.375e+3, 1.517e+0
3.378e+3, 1.515e+0
3.380e+3, 1.514e+0
3.383e+3, 1.512e+0
3.385e+3, 1.511e+0
3.387e+3, 1.509e+0
3.390e+3, 1.508e+0
3.392e+3, 1.506e+0
3.395e+3, 1.504e+0
3.397e+3, 1.503e+0
3.399e+3, 1.501e+0
3.402e+3, 1.499e+0
3.404e+3, 1.497e+0
3.407e+3, 1.495e+0
3.409e+3, 1.494e+0
3.411e+3, 1.492e+0
3.414e+3, 1.490e+0
3.416e+3, 1.488e+0
3.419e+3, 1.486e+0
3.421e+3, 1.484e+0
3.423e+3, 1.482e+0
3.426e+3, 1.480e+0
3.428e+3, 1.477e+0
3.431e+3, 1.475e+0
3.433e+3, 1.473e+0
3.436e+3, 1.471e+0
3.438e+3, 1.468e+0
3.440e+3, 1.466e+0
3.443e+3, 1.463e+0
3.445e+3, 1.461e+0
3.448e+3, 1.458e+0
3.450e+3, 1.455e+0
3.452e+3, 1.453e+0
3.455e+3, 1.450e+0
3.457e+3, 1.447e+0
3.460e+3, 1.444e+0
3.462e+3, 1.441e+0
3.464e+3, 1.438e+0
3.467e+3, 1.434e+0
3.469e+3, 1.431e+0
3.472e+3, 1.428e+0
3.474e+3, 1.424e+0
3.476e+3, 1.420e+0
3.479e+3, 1.416e+0
3.481e+3, 1.412e+0
3.484e+3, 1.408e+0
3.486e+3, 1.403e+0
3.488e+3, 1.399e+0
3.491e+3, 1.394e+0
3.493e+3, 1.389e+0
3.496e+3, 1.384e+0
3.498e+3, 1.379e+0
3.500e+3, 1.373e+0
3.503e+3, 1.368e+0
3.505e+3, 1.362e+0
3.508e+3, 1.355e+0
3.510e+3, 1.348e+0
3.512e+3, 1.341e+0
3.515e+3, 1.333e+0
3.517e+3, 1.325e+0
3.520e+3, 1.317e+0
3.522e+3, 1.308e+0
3.524e+3, 1.298e+0
3.527e+3, 1.287e+0
3.529e+3, 1.276e+0
3.532e+3, 1.264e+0
3.534e+3, 1.251e+0
3.536e+3, 1.238e+0
3.539e+3, 1.223e+0
3.541e+3, 1.208e+0
3.544e+3, 1.192e+0
3.546e+3, 1.176e+0
3.548e+3, 1.158e+0
3.551e+3, 1.140e+0
3.553e+3, 1.121e+0
3.556e+3, 1.101e+0
3.558e+3, 1.079e+0
3.560e+3, 1.057e+0
3.563e+3, 1.032e+0
3.565e+3, 1.006e+0
3.566e+3, 1.001e+0