File: database/experiments/MU/battery/922(806)/data/cv.txt
Sept. 23, 2021   18:22:21
Cyclic Voltammetry
File: c:\users\user\desktop\data\2021_m2\umeki\210923\2lfp_ppobqliftfsi_lto 50do05mv 0922made.txt
Data Source:  Experiment
Instrument Model:  CHI760E
Header:
Note:

Init E (V) = 1
High E (V) = 2.5
Low E (V) = 1
Init P/N = P
Scan Rate (V/s) = 5e-4
Segment = 6
Sample Interval (V) = 0.001
Quiet Time (sec) = 2
Sensitivity (A/V) = 0.001

Segment 1:

Segment 2:

Segment 3:

Segment 4:

Segment 5:

Segment 6:

Potential/V, Current/A

Segment 1:
1.000, -2.762e-4
1.001, -2.326e-4
1.002, -2.081e-4
1.003, -1.918e-4
1.004, -1.798e-4
1.005, -1.705e-4
1.006, -1.630e-4
1.007, -1.568e-4
1.008, -1.515e-4
1.009, -1.469e-4
1.010, -1.427e-4
1.011, -1.391e-4
1.012, -1.359e-4
1.013, -1.329e-4
1.014, -1.300e-4
1.015, -1.274e-4
1.016, -1.250e-4
1.017, -1.227e-4
1.018, -1.205e-4
1.019, -1.185e-4
1.020, -1.165e-4
1.021, -1.147e-4
1.022, -1.129e-4
1.023, -1.112e-4
1.024, -1.095e-4
1.025, -1.080e-4
1.026, -1.064e-4
1.027, -1.049e-4
1.028, -1.035e-4
1.029, -1.021e-4
1.030, -1.007e-4
1.031, -9.938e-5
1.032, -9.811e-5
1.033, -9.685e-5
1.034, -9.562e-5
1.035, -9.443e-5
1.036, -9.327e-5
1.037, -9.213e-5
1.038, -9.100e-5
1.039, -8.993e-5
1.040, -8.885e-5
1.041, -8.780e-5
1.042, -8.676e-5
1.043, -8.575e-5
1.044, -8.476e-5
1.045, -8.377e-5
1.046, -8.281e-5
1.047, -8.188e-5
1.048, -8.096e-5
1.049, -8.006e-5
1.050, -7.915e-5
1.051, -7.823e-5
1.052, -7.735e-5
1.053, -7.646e-5
1.054, -7.558e-5
1.055, -7.471e-5
1.056, -7.386e-5
1.057, -7.301e-5
1.058, -7.216e-5
1.059, -7.132e-5
1.060, -7.049e-5
1.061, -6.969e-5
1.062, -6.890e-5
1.063, -6.810e-5
1.064, -6.733e-5
1.065, -6.658e-5
1.066, -6.582e-5
1.067, -6.507e-5
1.068, -6.433e-5
1.069, -6.359e-5
1.070, -6.287e-5
1.071, -6.216e-5
1.072, -6.147e-5
1.073, -6.077e-5
1.074, -6.009e-5
1.075, -5.943e-5
1.076, -5.876e-5
1.077, -5.810e-5
1.078, -5.744e-5
1.079, -5.680e-5
1.080, -5.617e-5
1.081, -5.556e-5
1.082, -5.495e-5
1.083, -5.436e-5
1.084, -5.378e-5
1.085, -5.320e-5
1.086, -5.261e-5
1.087, -5.205e-5
1.088, -5.152e-5
1.089, -5.098e-5
1.090, -5.044e-5
1.091, -4.991e-5
1.092, -4.939e-5
1.093, -4.889e-5
1.094, -4.839e-5
1.095, -4.790e-5
1.096, -4.742e-5
1.097, -4.694e-5
1.098, -4.647e-5
1.099, -4.601e-5
1.100, -4.555e-5
1.101, -4.510e-5
1.102, -4.466e-5
1.103, -4.422e-5
1.104, -4.381e-5
1.105, -4.339e-5
1.106, -4.298e-5
1.107, -4.257e-5
1.108, -4.216e-5
1.109, -4.177e-5
1.110, -4.140e-5
1.111, -4.103e-5
1.112, -4.066e-5
1.113, -4.028e-5
1.114, -3.990e-5
1.115, -3.953e-5
1.116, -3.917e-5
1.117, -3.882e-5
1.118, -3.847e-5
1.119, -3.812e-5
1.120, -3.777e-5
1.121, -3.743e-5
1.122, -3.708e-5
1.123, -3.675e-5
1.124, -3.642e-5
1.125, -3.610e-5
1.126, -3.578e-5
1.127, -3.546e-5
1.128, -3.514e-5
1.129, -3.483e-5
1.130, -3.453e-5
1.131, -3.422e-5
1.132, -3.391e-5
1.133, -3.361e-5
1.134, -3.331e-5
1.135, -3.301e-5
1.136, -3.272e-5
1.137, -3.242e-5
1.138, -3.213e-5
1.139, -3.184e-5
1.140, -3.155e-5
1.141, -3.127e-5
1.142, -3.100e-5
1.143, -3.074e-5
1.144, -3.047e-5
1.145, -3.020e-5
1.146, -2.993e-5
1.147, -2.967e-5
1.148, -2.940e-5
1.149, -2.913e-5
1.150, -2.887e-5
1.151, -2.862e-5
1.152, -2.837e-5
1.153, -2.812e-5
1.154, -2.787e-5
1.155, -2.762e-5
1.156, -2.738e-5
1.157, -2.714e-5
1.158, -2.691e-5
1.159, -2.667e-5
1.160, -2.644e-5
1.161, -2.621e-5
1.162, -2.598e-5
1.163, -2.576e-5
1.164, -2.553e-5
1.165, -2.531e-5
1.166, -2.509e-5
1.167, -2.486e-5
1.168, -2.464e-5
1.169, -2.441e-5
1.170, -2.419e-5
1.171, -2.396e-5
1.172, -2.373e-5
1.173, -2.350e-5
1.174, -2.327e-5
1.175, -2.304e-5
1.176, -2.282e-5
1.177, -2.261e-5
1.178, -2.241e-5
1.179, -2.221e-5
1.180, -2.202e-5
1.181, -2.183e-5
1.182, -2.164e-5
1.183, -2.145e-5
1.184, -2.126e-5
1.185, -2.108e-5
1.186, -2.089e-5
1.187, -2.071e-5
1.188, -2.053e-5
1.189, -2.035e-5
1.190, -2.017e-5
1.191, -1.999e-5
1.192, -1.981e-5
1.193, -1.963e-5
1.194, -1.945e-5
1.195, -1.928e-5
1.196, -1.910e-5
1.197, -1.893e-5
1.198, -1.876e-5
1.199, -1.859e-5
1.200, -1.843e-5
1.201, -1.826e-5
1.202, -1.810e-5
1.203, -1.794e-5
1.204, -1.779e-5
1.205, -1.763e-5
1.206, -1.747e-5
1.207, -1.732e-5
1.208, -1.716e-5
1.209, -1.701e-5
1.210, -1.686e-5
1.211, -1.671e-5
1.212, -1.656e-5
1.213, -1.641e-5
1.214, -1.626e-5
1.215, -1.611e-5
1.216, -1.597e-5
1.217, -1.582e-5
1.218, -1.568e-5
1.219, -1.553e-5
1.220, -1.539e-5
1.221, -1.525e-5
1.222, -1.511e-5
1.223, -1.496e-5
1.224, -1.483e-5
1.225, -1.468e-5
1.226, -1.454e-5
1.227, -1.440e-5
1.228, -1.426e-5
1.229, -1.412e-5
1.230, -1.398e-5
1.231, -1.385e-5
1.232, -1.371e-5
1.233, -1.357e-5
1.234, -1.344e-5
1.235, -1.330e-5
1.236, -1.317e-5
1.237, -1.304e-5
1.238, -1.291e-5
1.239, -1.278e-5
1.240, -1.265e-5
1.241, -1.251e-5
1.242, -1.238e-5
1.243, -1.224e-5
1.244, -1.211e-5
1.245, -1.197e-5
1.246, -1.183e-5
1.247, -1.170e-5
1.248, -1.158e-5
1.249, -1.145e-5
1.250, -1.133e-5
1.251, -1.121e-5
1.252, -1.110e-5
1.253, -1.099e-5
1.254, -1.088e-5
1.255, -1.077e-5
1.256, -1.066e-5
1.257, -1.056e-5
1.258, -1.046e-5
1.259, -1.036e-5
1.260, -1.026e-5
1.261, -1.016e-5
1.262, -1.007e-5
1.263, -9.976e-6
1.264, -9.886e-6
1.265, -9.793e-6
1.266, -9.700e-6
1.267, -9.611e-6
1.268, -9.520e-6
1.269, -9.429e-6
1.270, -9.339e-6
1.271, -9.250e-6
1.272, -9.165e-6
1.273, -9.079e-6
1.274, -8.992e-6
1.275, -8.906e-6
1.276, -8.820e-6
1.277, -8.737e-6
1.278, -8.652e-6
1.279, -8.565e-6
1.280, -8.485e-6
1.281, -8.401e-6
1.282, -8.316e-6
1.283, -8.234e-6
1.284, -8.151e-6
1.285, -8.069e-6
1.286, -7.991e-6
1.287, -7.909e-6
1.288, -7.830e-6
1.289, -7.750e-6
1.290, -7.672e-6
1.291, -7.594e-6
1.292, -7.517e-6
1.293, -7.440e-6
1.294, -7.363e-6
1.295, -7.288e-6
1.296, -7.211e-6
1.297, -7.133e-6
1.298, -7.055e-6
1.299, -6.982e-6
1.300, -6.905e-6
1.301, -6.829e-6
1.302, -6.753e-6
1.303, -6.676e-6
1.304, -6.601e-6
1.305, -6.529e-6
1.306, -6.453e-6
1.307, -6.378e-6
1.308, -6.307e-6
1.309, -6.234e-6
1.310, -6.162e-6
1.311, -6.088e-6
1.312, -6.023e-6
1.313, -5.946e-6
1.314, -5.877e-6
1.315, -5.807e-6
1.316, -5.735e-6
1.317, -5.667e-6
1.318, -5.597e-6
1.319, -5.528e-6
1.320, -5.459e-6
1.321, -5.392e-6
1.322, -5.323e-6
1.323, -5.256e-6
1.324, -5.188e-6
1.325, -5.120e-6
1.326, -5.054e-6
1.327, -4.987e-6
1.328, -4.920e-6
1.329, -4.852e-6
1.330, -4.788e-6
1.331, -4.724e-6
1.332, -4.658e-6
1.333, -4.591e-6
1.334, -4.529e-6
1.335, -4.465e-6
1.336, -4.402e-6
1.337, -4.339e-6
1.338, -4.274e-6
1.339, -4.213e-6
1.340, -4.147e-6
1.341, -4.088e-6
1.342, -4.023e-6
1.343, -3.963e-6
1.344, -3.898e-6
1.345, -3.833e-6
1.346, -3.770e-6
1.347, -3.709e-6
1.348, -3.646e-6
1.349, -3.584e-6
1.350, -3.523e-6
1.351, -3.459e-6
1.352, -3.397e-6
1.353, -3.334e-6
1.354, -3.270e-6
1.355, -3.209e-6
1.356, -3.144e-6
1.357, -3.083e-6
1.358, -3.018e-6
1.359, -2.954e-6
1.360, -2.890e-6
1.361, -2.827e-6
1.362, -2.762e-6
1.363, -2.700e-6
1.364, -2.634e-6
1.365, -2.570e-6
1.366, -2.510e-6
1.367, -2.445e-6
1.368, -2.383e-6
1.369, -2.320e-6
1.370, -2.259e-6
1.371, -2.194e-6
1.372, -2.132e-6
1.373, -2.068e-6
1.374, -2.009e-6
1.375, -1.944e-6
1.376, -1.883e-6
1.377, -1.820e-6
1.378, -1.757e-6
1.379, -1.695e-6
1.380, -1.632e-6
1.381, -1.572e-6
1.382, -1.508e-6
1.383, -1.445e-6
1.384, -1.383e-6
1.385, -1.323e-6
1.386, -1.260e-6
1.387, -1.201e-6
1.388, -1.140e-6
1.389, -1.082e-6
1.390, -1.019e-6
1.391, -9.563e-7
1.392, -8.983e-7
1.393, -8.356e-7
1.394, -7.738e-7
1.395, -7.173e-7
1.396, -6.524e-7
1.397, -5.952e-7
1.398, -5.333e-7
1.399, -4.707e-7
1.400, -4.111e-7
1.401, -3.501e-7
1.402, -2.913e-7
1.403, -2.302e-7
1.404, -1.714e-7
1.405, -1.111e-7
1.406, -5.005e-8
1.407, 1.258e-8
1.408, 7.134e-8
1.409, 1.317e-7
1.410, 1.935e-7
1.411, 2.538e-7
1.412, 3.134e-7
1.413, 3.775e-7
1.414, 4.363e-7
1.415, 5.005e-7
1.416, 5.616e-7
1.417, 6.234e-7
1.418, 6.876e-7
1.419, 7.494e-7
1.420, 8.159e-7
1.421, 8.778e-7
1.422, 9.420e-7
1.423, 1.010e-6
1.424, 1.070e-6
1.425, 1.134e-6
1.426, 1.200e-6
1.427, 1.262e-6
1.428, 1.326e-6
1.429, 1.391e-6
1.430, 1.455e-6
1.431, 1.521e-6
1.432, 1.585e-6
1.433, 1.653e-6
1.434, 1.718e-6
1.435, 1.783e-6
1.436, 1.853e-6
1.437, 1.919e-6
1.438, 1.984e-6
1.439, 2.055e-6
1.440, 2.118e-6
1.441, 2.188e-6
1.442, 2.256e-6
1.443, 2.321e-6
1.444, 2.391e-6
1.445, 2.458e-6
1.446, 2.525e-6
1.447, 2.594e-6
1.448, 2.657e-6
1.449, 2.729e-6
1.450, 2.795e-6
1.451, 2.861e-6
1.452, 2.934e-6
1.453, 3.001e-6
1.454, 3.068e-6
1.455, 3.142e-6
1.456, 3.204e-6
1.457, 3.279e-6
1.458, 3.351e-6
1.459, 3.419e-6
1.460, 3.490e-6
1.461, 3.565e-6
1.462, 3.633e-6
1.463, 3.709e-6
1.464, 3.777e-6
1.465, 3.852e-6
1.466, 3.925e-6
1.467, 3.998e-6
1.468, 4.073e-6
1.469, 4.146e-6
1.470, 4.223e-6
1.471, 4.298e-6
1.472, 4.371e-6
1.473, 4.452e-6
1.474, 4.532e-6
1.475, 4.607e-6
1.476, 4.686e-6
1.477, 4.765e-6
1.478, 4.845e-6
1.479, 4.924e-6
1.480, 5.001e-6
1.481, 5.085e-6
1.482, 5.167e-6
1.483, 5.244e-6
1.484, 5.327e-6
1.485, 5.400e-6
1.486, 5.485e-6
1.487, 5.570e-6
1.488, 5.648e-6
1.489, 5.734e-6
1.490, 5.816e-6
1.491, 5.900e-6
1.492, 5.983e-6
1.493, 6.070e-6
1.494, 6.156e-6
1.495, 6.249e-6
1.496, 6.332e-6
1.497, 6.421e-6
1.498, 6.509e-6
1.499, 6.603e-6
1.500, 6.692e-6
1.501, 6.784e-6
1.502, 6.878e-6
1.503, 6.974e-6
1.504, 7.064e-6
1.505, 7.159e-6
1.506, 7.258e-6
1.507, 7.350e-6
1.508, 7.452e-6
1.509, 7.544e-6
1.510, 7.640e-6
1.511, 7.741e-6
1.512, 7.836e-6
1.513, 7.941e-6
1.514, 8.038e-6
1.515, 8.137e-6
1.516, 8.242e-6
1.517, 8.343e-6
1.518, 8.450e-6
1.519, 8.557e-6
1.520, 8.661e-6
1.521, 8.769e-6
1.522, 8.886e-6
1.523, 8.992e-6
1.524, 9.109e-6
1.525, 9.221e-6
1.526, 9.336e-6
1.527, 9.457e-6
1.528, 9.568e-6
1.529, 9.692e-6
1.530, 9.806e-6
1.531, 9.927e-6
1.532, 1.005e-5
1.533, 1.017e-5
1.534, 1.029e-5
1.535, 1.042e-5
1.536, 1.053e-5
1.537, 1.066e-5
1.538, 1.079e-5
1.539, 1.092e-5
1.540, 1.105e-5
1.541, 1.118e-5
1.542, 1.131e-5
1.543, 1.145e-5
1.544, 1.158e-5
1.545, 1.172e-5
1.546, 1.185e-5
1.547, 1.199e-5
1.548, 1.214e-5
1.549, 1.227e-5
1.550, 1.242e-5
1.551, 1.258e-5
1.552, 1.271e-5
1.553, 1.286e-5
1.554, 1.302e-5
1.555, 1.316e-5
1.556, 1.332e-5
1.557, 1.348e-5
1.558, 1.363e-5
1.559, 1.380e-5
1.560, 1.395e-5
1.561, 1.412e-5
1.562, 1.429e-5
1.563, 1.446e-5
1.564, 1.463e-5
1.565, 1.480e-5
1.566, 1.498e-5
1.567, 1.515e-5
1.568, 1.531e-5
1.569, 1.549e-5
1.570, 1.567e-5
1.571, 1.583e-5
1.572, 1.600e-5
1.573, 1.616e-5
1.574, 1.633e-5
1.575, 1.651e-5
1.576, 1.670e-5
1.577, 1.690e-5
1.578, 1.710e-5
1.579, 1.729e-5
1.580, 1.749e-5
1.581, 1.769e-5
1.582, 1.789e-5
1.583, 1.810e-5
1.584, 1.830e-5
1.585, 1.851e-5
1.586, 1.875e-5
1.587, 1.896e-5
1.588, 1.919e-5
1.589, 1.942e-5
1.590, 1.965e-5
1.591, 1.989e-5
1.592, 2.011e-5
1.593, 2.035e-5
1.594, 2.058e-5
1.595, 2.081e-5
1.596, 2.106e-5
1.597, 2.129e-5
1.598, 2.154e-5
1.599, 2.179e-5
1.600, 2.202e-5
1.601, 2.229e-5
1.602, 2.254e-5
1.603, 2.279e-5
1.604, 2.305e-5
1.605, 2.332e-5
1.606, 2.358e-5
1.607, 2.385e-5
1.608, 2.412e-5
1.609, 2.440e-5
1.610, 2.468e-5
1.611, 2.495e-5
1.612, 2.524e-5
1.613, 2.551e-5
1.614, 2.579e-5
1.615, 2.608e-5
1.616, 2.635e-5
1.617, 2.665e-5
1.618, 2.695e-5
1.619, 2.724e-5
1.620, 2.754e-5
1.621, 2.785e-5
1.622, 2.814e-5
1.623, 2.844e-5
1.624, 2.874e-5
1.625, 2.905e-5
1.626, 2.936e-5
1.627, 2.967e-5
1.628, 3.000e-5
1.629, 3.030e-5
1.630, 3.063e-5
1.631, 3.096e-5
1.632, 3.127e-5
1.633, 3.160e-5
1.634, 3.194e-5
1.635, 3.226e-5
1.636, 3.260e-5
1.637, 3.292e-5
1.638, 3.330e-5
1.639, 3.365e-5
1.640, 3.398e-5
1.641, 3.431e-5
1.642, 3.465e-5
1.643, 3.500e-5
1.644, 3.534e-5
1.645, 3.566e-5
1.646, 3.602e-5
1.647, 3.637e-5
1.648, 3.672e-5
1.649, 3.709e-5
1.650, 3.745e-5
1.651, 3.781e-5
1.652, 3.818e-5
1.653, 3.854e-5
1.654, 3.890e-5
1.655, 3.929e-5
1.656, 3.966e-5
1.657, 4.004e-5
1.658, 4.043e-5
1.659, 4.080e-5
1.660, 4.120e-5
1.661, 4.156e-5
1.662, 4.197e-5
1.663, 4.237e-5
1.664, 4.275e-5
1.665, 4.318e-5
1.666, 4.360e-5
1.667, 4.399e-5
1.668, 4.442e-5
1.669, 4.485e-5
1.670, 4.527e-5
1.671, 4.571e-5
1.672, 4.613e-5
1.673, 4.656e-5
1.674, 4.699e-5
1.675, 4.744e-5
1.676, 4.791e-5
1.677, 4.835e-5
1.678, 4.881e-5
1.679, 4.929e-5
1.680, 4.973e-5
1.681, 5.022e-5
1.682, 5.070e-5
1.683, 5.116e-5
1.684, 5.165e-5
1.685, 5.214e-5
1.686, 5.263e-5
1.687, 5.317e-5
1.688, 5.369e-5
1.689, 5.421e-5
1.690, 5.472e-5
1.691, 5.522e-5
1.692, 5.574e-5
1.693, 5.624e-5
1.694, 5.676e-5
1.695, 5.729e-5
1.696, 5.779e-5
1.697, 5.834e-5
1.698, 5.887e-5
1.699, 5.937e-5
1.700, 5.992e-5
1.701, 6.044e-5
1.702, 6.097e-5
1.703, 6.151e-5
1.704, 6.206e-5
1.705, 6.261e-5
1.706, 6.316e-5
1.707, 6.370e-5
1.708, 6.425e-5
1.709, 6.475e-5
1.710, 6.532e-5
1.711, 6.587e-5
1.712, 6.642e-5
1.713, 6.698e-5
1.714, 6.753e-5
1.715, 6.807e-5
1.716, 6.863e-5
1.717, 6.921e-5
1.718, 6.976e-5
1.719, 7.033e-5
1.720, 7.089e-5
1.721, 7.145e-5
1.722, 7.201e-5
1.723, 7.257e-5
1.724, 7.315e-5
1.725, 7.369e-5
1.726, 7.426e-5
1.727, 7.485e-5
1.728, 7.539e-5
1.729, 7.600e-5
1.730, 7.661e-5
1.731, 7.718e-5
1.732, 7.776e-5
1.733, 7.835e-5
1.734, 7.894e-5
1.735, 7.956e-5
1.736, 8.014e-5
1.737, 8.076e-5
1.738, 8.135e-5
1.739, 8.196e-5
1.740, 8.258e-5
1.741, 8.316e-5
1.742, 8.380e-5
1.743, 8.443e-5
1.744, 8.503e-5
1.745, 8.565e-5
1.746, 8.631e-5
1.747, 8.693e-5
1.748, 8.759e-5
1.749, 8.820e-5
1.750, 8.883e-5
1.751, 8.949e-5
1.752, 9.013e-5
1.753, 9.078e-5
1.754, 9.144e-5
1.755, 9.210e-5
1.756, 9.279e-5
1.757, 9.344e-5
1.758, 9.412e-5
1.759, 9.482e-5
1.760, 9.545e-5
1.761, 9.616e-5
1.762, 9.688e-5
1.763, 9.757e-5
1.764, 9.827e-5
1.765, 9.895e-5
1.766, 9.967e-5
1.767, 1.004e-4
1.768, 1.011e-4
1.769, 1.018e-4
1.770, 1.026e-4
1.771, 1.033e-4
1.772, 1.040e-4
1.773, 1.048e-4
1.774, 1.055e-4
1.775, 1.063e-4
1.776, 1.070e-4
1.777, 1.078e-4
1.778, 1.086e-4
1.779, 1.093e-4
1.780, 1.101e-4
1.781, 1.109e-4
1.782, 1.117e-4
1.783, 1.125e-4
1.784, 1.133e-4
1.785, 1.141e-4
1.786, 1.149e-4
1.787, 1.157e-4
1.788, 1.166e-4
1.789, 1.174e-4
1.790, 1.182e-4
1.791, 1.191e-4
1.792, 1.199e-4
1.793, 1.208e-4
1.794, 1.217e-4
1.795, 1.225e-4
1.796, 1.234e-4
1.797, 1.243e-4
1.798, 1.252e-4
1.799, 1.261e-4
1.800, 1.270e-4
1.801, 1.279e-4
1.802, 1.288e-4
1.803, 1.297e-4
1.804, 1.307e-4
1.805, 1.317e-4
1.806, 1.326e-4
1.807, 1.336e-4
1.808, 1.345e-4
1.809, 1.355e-4
1.810, 1.365e-4
1.811, 1.375e-4
1.812, 1.385e-4
1.813, 1.395e-4
1.814, 1.405e-4
1.815, 1.415e-4
1.816, 1.425e-4
1.817, 1.435e-4
1.818, 1.445e-4
1.819, 1.456e-4
1.820, 1.466e-4
1.821, 1.477e-4
1.822, 1.487e-4
1.823, 1.498e-4
1.824, 1.508e-4
1.825, 1.519e-4
1.826, 1.530e-4
1.827, 1.541e-4
1.828, 1.552e-4
1.829, 1.563e-4
1.830, 1.574e-4
1.831, 1.586e-4
1.832, 1.597e-4
1.833, 1.608e-4
1.834, 1.620e-4
1.835, 1.631e-4
1.836, 1.644e-4
1.837, 1.655e-4
1.838, 1.667e-4
1.839, 1.679e-4
1.840, 1.690e-4
1.841, 1.701e-4
1.842, 1.713e-4
1.843, 1.725e-4
1.844, 1.738e-4
1.845, 1.750e-4
1.846, 1.763e-4
1.847, 1.775e-4
1.848, 1.788e-4
1.849, 1.801e-4
1.850, 1.814e-4
1.851, 1.826e-4
1.852, 1.839e-4
1.853, 1.852e-4
1.854, 1.866e-4
1.855, 1.879e-4
1.856, 1.892e-4
1.857, 1.905e-4
1.858, 1.919e-4
1.859, 1.932e-4
1.860, 1.946e-4
1.861, 1.959e-4
1.862, 1.973e-4
1.863, 1.988e-4
1.864, 2.001e-4
1.865, 2.016e-4
1.866, 2.030e-4
1.867, 2.044e-4
1.868, 2.058e-4
1.869, 2.072e-4
1.870, 2.087e-4
1.871, 2.102e-4
1.872, 2.117e-4
1.873, 2.132e-4
1.874, 2.146e-4
1.875, 2.161e-4
1.876, 2.177e-4
1.877, 2.192e-4
1.878, 2.207e-4
1.879, 2.222e-4
1.880, 2.237e-4
1.881, 2.253e-4
1.882, 2.268e-4
1.883, 2.283e-4
1.884, 2.300e-4
1.885, 2.315e-4
1.886, 2.331e-4
1.887, 2.347e-4
1.888, 2.363e-4
1.889, 2.379e-4
1.890, 2.396e-4
1.891, 2.412e-4
1.892, 2.428e-4
1.893, 2.444e-4
1.894, 2.461e-4
1.895, 2.478e-4
1.896, 2.495e-4
1.897, 2.512e-4
1.898, 2.528e-4
1.899, 2.545e-4
1.900, 2.563e-4
1.901, 2.580e-4
1.902, 2.597e-4
1.903, 2.615e-4
1.904, 2.632e-4
1.905, 2.650e-4
1.906, 2.667e-4
1.907, 2.685e-4
1.908, 2.703e-4
1.909, 2.721e-4
1.910, 2.739e-4
1.911, 2.758e-4
1.912, 2.776e-4
1.913, 2.795e-4
1.914, 2.813e-4
1.915, 2.832e-4
1.916, 2.852e-4
1.917, 2.871e-4
1.918, 2.890e-4
1.919, 2.909e-4
1.920, 2.928e-4
1.921, 2.948e-4
1.922, 2.968e-4
1.923, 2.988e-4
1.924, 3.008e-4
1.925, 3.028e-4
1.926, 3.049e-4
1.927, 3.069e-4
1.928, 3.091e-4
1.929, 3.113e-4
1.930, 3.134e-4
1.931, 3.156e-4
1.932, 3.180e-4
1.933, 3.202e-4
1.934, 3.226e-4
1.935, 3.249e-4
1.936, 3.273e-4
1.937, 3.299e-4
1.938, 3.325e-4
1.939, 3.351e-4
1.940, 3.378e-4
1.941, 3.406e-4
1.942, 3.434e-4
1.943, 3.463e-4
1.944, 3.492e-4
1.945, 3.522e-4
1.946, 3.553e-4
1.947, 3.584e-4
1.948, 3.617e-4
1.949, 3.649e-4
1.950, 3.682e-4
1.951, 3.716e-4
1.952, 3.749e-4
1.953, 3.784e-4
1.954, 3.818e-4
1.955, 3.853e-4
1.956, 3.889e-4
1.957, 3.925e-4
1.958, 3.962e-4
1.959, 3.999e-4
1.960, 4.036e-4
1.961, 4.074e-4
1.962, 4.111e-4
1.963, 4.150e-4
1.964, 4.188e-4
1.965, 4.226e-4
1.966, 4.265e-4
1.967, 4.304e-4
1.968, 4.343e-4
1.969, 4.382e-4
1.970, 4.422e-4
1.971, 4.461e-4
1.972, 4.501e-4
1.973, 4.541e-4
1.974, 4.580e-4
1.975, 4.619e-4
1.976, 4.659e-4
1.977, 4.699e-4
1.978, 4.739e-4
1.979, 4.778e-4
1.980, 4.817e-4
1.981, 4.856e-4
1.982, 4.897e-4
1.983, 4.937e-4
1.984, 4.976e-4
1.985, 5.016e-4
1.986, 5.056e-4
1.987, 5.096e-4
1.988, 5.136e-4
1.989, 5.177e-4
1.990, 5.217e-4
1.991, 5.257e-4
1.992, 5.297e-4
1.993, 5.337e-4
1.994, 5.377e-4
1.995, 5.417e-4
1.996, 5.457e-4
1.997, 5.497e-4
1.998, 5.537e-4
1.999, 5.577e-4
2.000, 5.617e-4
2.001, 5.657e-4
2.002, 5.697e-4
2.003, 5.736e-4
2.004, 5.776e-4
2.005, 5.816e-4
2.006, 5.856e-4
2.007, 5.895e-4
2.008, 5.935e-4
2.009, 5.976e-4
2.010, 6.016e-4
2.011, 6.056e-4
2.012, 6.095e-4
2.013, 6.134e-4
2.014, 6.174e-4
2.015, 6.214e-4
2.016, 6.253e-4
2.017, 6.292e-4
2.018, 6.331e-4
2.019, 6.369e-4
2.020, 6.409e-4
2.021, 6.448e-4
2.022, 6.487e-4
2.023, 6.526e-4
2.024, 6.565e-4
2.025, 6.605e-4
2.026, 6.644e-4
2.027, 6.683e-4
2.028, 6.723e-4
2.029, 6.762e-4
2.030, 6.801e-4
2.031, 6.840e-4
2.032, 6.878e-4
2.033, 6.917e-4
2.034, 6.956e-4
2.035, 6.994e-4
2.036, 7.033e-4
2.037, 7.072e-4
2.038, 7.110e-4
2.039, 7.148e-4
2.040, 7.187e-4
2.041, 7.225e-4
2.042, 7.263e-4
2.043, 7.301e-4
2.044, 7.339e-4
2.045, 7.377e-4
2.046, 7.415e-4
2.047, 7.453e-4
2.048, 7.490e-4
2.049, 7.529e-4
2.050, 7.567e-4
2.051, 7.604e-4
2.052, 7.642e-4
2.053, 7.679e-4
2.054, 7.717e-4
2.055, 7.754e-4
2.056, 7.791e-4
2.057, 7.829e-4
2.058, 7.864e-4
2.059, 7.901e-4
2.060, 7.938e-4
2.061, 7.975e-4
2.062, 8.012e-4
2.063, 8.048e-4
2.064, 8.085e-4
2.065, 8.121e-4
2.066, 8.158e-4
2.067, 8.194e-4
2.068, 8.231e-4
2.069, 8.268e-4
2.070, 8.304e-4
2.071, 8.340e-4
2.072, 8.375e-4
2.073, 8.411e-4
2.074, 8.447e-4
2.075, 8.482e-4
2.076, 8.518e-4
2.077, 8.553e-4
2.078, 8.589e-4
2.079, 8.624e-4
2.080, 8.658e-4
2.081, 8.694e-4
2.082, 8.728e-4
2.083, 8.763e-4
2.084, 8.798e-4
2.085, 8.832e-4
2.086, 8.866e-4
2.087, 8.900e-4
2.088, 8.934e-4
2.089, 8.968e-4
2.090, 9.002e-4
2.091, 9.036e-4
2.092, 9.070e-4
2.093, 9.103e-4
2.094, 9.136e-4
2.095, 9.169e-4
2.096, 9.202e-4
2.097, 9.234e-4
2.098, 9.267e-4
2.099, 9.299e-4
2.100, 9.332e-4
2.101, 9.364e-4
2.102, 9.395e-4
2.103, 9.427e-4
2.104, 9.458e-4
2.105, 9.489e-4
2.106, 9.520e-4
2.107, 9.551e-4
2.108, 9.582e-4
2.109, 9.611e-4
2.110, 9.642e-4
2.111, 9.672e-4
2.112, 9.701e-4
2.113, 9.731e-4
2.114, 9.760e-4
2.115, 9.789e-4
2.116, 9.818e-4
2.117, 9.846e-4
2.118, 9.874e-4
2.119, 9.901e-4
2.120, 9.928e-4
2.121, 9.955e-4
2.122, 9.982e-4
2.123, 1.001e-3
2.124, 1.003e-3
2.125, 1.006e-3
2.126, 1.008e-3
2.127, 1.011e-3
2.128, 1.013e-3
2.129, 1.015e-3
2.130, 1.018e-3
2.131, 1.020e-3
2.132, 1.022e-3
2.133, 1.024e-3
2.134, 1.026e-3
2.135, 1.028e-3
2.136, 1.030e-3
2.137, 1.031e-3
2.138, 1.033e-3
2.139, 1.035e-3
2.140, 1.036e-3
2.141, 1.038e-3
2.142, 1.040e-3
2.143, 1.041e-3
2.144, 1.042e-3
2.145, 1.044e-3
2.146, 1.045e-3
2.147, 1.046e-3
2.148, 1.048e-3
2.149, 1.049e-3
2.150, 1.050e-3
2.151, 1.051e-3
2.152, 1.053e-3
2.153, 1.054e-3
2.154, 1.055e-3
2.155, 1.056e-3
2.156, 1.057e-3
2.157, 1.058e-3
2.158, 1.059e-3
2.159, 1.060e-3
2.160, 1.061e-3
2.161, 1.062e-3
2.162, 1.063e-3
2.163, 1.064e-3
2.164, 1.065e-3
2.165, 1.066e-3
2.166, 1.067e-3
2.167, 1.067e-3
2.168, 1.068e-3
2.169, 1.069e-3
2.170, 1.070e-3
2.171, 1.071e-3
2.172, 1.071e-3
2.173, 1.072e-3
2.174, 1.073e-3
2.175, 1.073e-3
2.176, 1.074e-3
2.177, 1.075e-3
2.178, 1.075e-3
2.179, 1.076e-3
2.180, 1.076e-3
2.181, 1.077e-3
2.182, 1.077e-3
2.183, 1.078e-3
2.184, 1.078e-3
2.185, 1.079e-3
2.186, 1.079e-3
2.187, 1.080e-3
2.188, 1.080e-3
2.189, 1.080e-3
2.190, 1.081e-3
2.191, 1.081e-3
2.192, 1.081e-3
2.193, 1.081e-3
2.194, 1.081e-3
2.195, 1.082e-3
2.196, 1.082e-3
2.197, 1.082e-3
2.198, 1.082e-3
2.199, 1.082e-3
2.200, 1.082e-3
2.201, 1.081e-3
2.202, 1.081e-3
2.203, 1.081e-3
2.204, 1.081e-3
2.205, 1.080e-3
2.206, 1.080e-3
2.207, 1.080e-3
2.208, 1.079e-3
2.209, 1.078e-3
2.210, 1.078e-3
2.211, 1.077e-3
2.212, 1.077e-3
2.213, 1.076e-3
2.214, 1.075e-3
2.215, 1.074e-3
2.216, 1.074e-3
2.217, 1.073e-3
2.218, 1.072e-3
2.219, 1.071e-3
2.220, 1.070e-3
2.221, 1.069e-3
2.222, 1.068e-3
2.223, 1.067e-3
2.224, 1.066e-3
2.225, 1.064e-3
2.226, 1.063e-3
2.227, 1.062e-3
2.228, 1.061e-3
2.229, 1.059e-3
2.230, 1.058e-3
2.231, 1.057e-3
2.232, 1.056e-3
2.233, 1.054e-3
2.234, 1.053e-3
2.235, 1.052e-3
2.236, 1.050e-3
2.237, 1.049e-3
2.238, 1.048e-3
2.239, 1.046e-3
2.240, 1.045e-3
2.241, 1.044e-3
2.242, 1.042e-3
2.243, 1.041e-3
2.244, 1.039e-3
2.245, 1.038e-3
2.246, 1.036e-3
2.247, 1.035e-3
2.248, 1.034e-3
2.249, 1.032e-3
2.250, 1.031e-3
2.251, 1.029e-3
2.252, 1.028e-3
2.253, 1.026e-3
2.254, 1.025e-3
2.255, 1.023e-3
2.256, 1.022e-3
2.257, 1.020e-3
2.258, 1.019e-3
2.259, 1.017e-3
2.260, 1.016e-3
2.261, 1.014e-3
2.262, 1.013e-3
2.263, 1.011e-3
2.264, 1.009e-3
2.265, 1.008e-3
2.266, 1.006e-3
2.267, 1.005e-3
2.268, 1.003e-3
2.269, 1.002e-3
2.270, 1.000e-3
2.271, 9.990e-4
2.272, 9.975e-4
2.273, 9.960e-4
2.274, 9.945e-4
2.275, 9.929e-4
2.276, 9.914e-4
2.277, 9.899e-4
2.278, 9.883e-4
2.279, 9.867e-4
2.280, 9.852e-4
2.281, 9.837e-4
2.282, 9.821e-4
2.283, 9.805e-4
2.284, 9.788e-4
2.285, 9.772e-4
2.286, 9.756e-4
2.287, 9.740e-4
2.288, 9.723e-4
2.289, 9.707e-4
2.290, 9.691e-4
2.291, 9.674e-4
2.292, 9.657e-4
2.293, 9.641e-4
2.294, 9.624e-4
2.295, 9.608e-4
2.296, 9.591e-4
2.297, 9.574e-4
2.298, 9.557e-4
2.299, 9.541e-4
2.300, 9.524e-4
2.301, 9.507e-4
2.302, 9.490e-4
2.303, 9.474e-4
2.304, 9.457e-4
2.305, 9.440e-4
2.306, 9.424e-4
2.307, 9.408e-4
2.308, 9.392e-4
2.309, 9.375e-4
2.310, 9.359e-4
2.311, 9.342e-4
2.312, 9.325e-4
2.313, 9.309e-4
2.314, 9.293e-4
2.315, 9.277e-4
2.316, 9.261e-4
2.317, 9.245e-4
2.318, 9.229e-4
2.319, 9.214e-4
2.320, 9.199e-4
2.321, 9.183e-4
2.322, 9.168e-4
2.323, 9.152e-4
2.324, 9.136e-4
2.325, 9.120e-4
2.326, 9.104e-4
2.327, 9.088e-4
2.328, 9.071e-4
2.329, 9.055e-4
2.330, 9.038e-4
2.331, 9.021e-4
2.332, 9.005e-4
2.333, 8.988e-4
2.334, 8.972e-4
2.335, 8.956e-4
2.336, 8.940e-4
2.337, 8.925e-4
2.338, 8.910e-4
2.339, 8.894e-4
2.340, 8.880e-4
2.341, 8.865e-4
2.342, 8.851e-4
2.343, 8.837e-4
2.344, 8.824e-4
2.345, 8.810e-4
2.346, 8.796e-4
2.347, 8.783e-4
2.348, 8.769e-4
2.349, 8.756e-4
2.350, 8.742e-4
2.351, 8.728e-4
2.352, 8.714e-4
2.353, 8.701e-4
2.354, 8.687e-4
2.355, 8.673e-4
2.356, 8.660e-4
2.357, 8.646e-4
2.358, 8.632e-4
2.359, 8.619e-4
2.360, 8.605e-4
2.361, 8.591e-4
2.362, 8.577e-4
2.363, 8.563e-4
2.364, 8.550e-4
2.365, 8.536e-4
2.366, 8.522e-4
2.367, 8.508e-4
2.368, 8.494e-4
2.369, 8.481e-4
2.370, 8.467e-4
2.371, 8.454e-4
2.372, 8.441e-4
2.373, 8.427e-4
2.374, 8.414e-4
2.375, 8.401e-4
2.376, 8.387e-4
2.377, 8.375e-4
2.378, 8.361e-4
2.379, 8.348e-4
2.380, 8.335e-4
2.381, 8.322e-4
2.382, 8.309e-4
2.383, 8.296e-4
2.384, 8.283e-4
2.385, 8.270e-4
2.386, 8.256e-4
2.387, 8.242e-4
2.388, 8.229e-4
2.389, 8.216e-4
2.390, 8.202e-4
2.391, 8.189e-4
2.392, 8.176e-4
2.393, 8.163e-4
2.394, 8.150e-4
2.395, 8.137e-4
2.396, 8.124e-4
2.397, 8.111e-4
2.398, 8.098e-4
2.399, 8.085e-4
2.400, 8.071e-4
2.401, 8.058e-4
2.402, 8.046e-4
2.403, 8.032e-4
2.404, 8.019e-4
2.405, 8.006e-4
2.406, 7.993e-4
2.407, 7.979e-4
2.408, 7.966e-4
2.409, 7.953e-4
2.410, 7.939e-4
2.411, 7.925e-4
2.412, 7.911e-4
2.413, 7.897e-4
2.414, 7.883e-4
2.415, 7.869e-4
2.416, 7.856e-4
2.417, 7.843e-4
2.418, 7.829e-4
2.419, 7.814e-4
2.420, 7.800e-4
2.421, 7.786e-4
2.422, 7.772e-4
2.423, 7.758e-4
2.424, 7.744e-4
2.425, 7.731e-4
2.426, 7.717e-4
2.427, 7.703e-4
2.428, 7.690e-4
2.429, 7.677e-4
2.430, 7.664e-4
2.431, 7.651e-4
2.432, 7.637e-4
2.433, 7.623e-4
2.434, 7.610e-4
2.435, 7.596e-4
2.436, 7.582e-4
2.437, 7.568e-4
2.438, 7.554e-4
2.439, 7.539e-4
2.440, 7.525e-4
2.441, 7.510e-4
2.442, 7.496e-4
2.443, 7.481e-4
2.444, 7.466e-4
2.445, 7.451e-4
2.446, 7.437e-4
2.447, 7.422e-4
2.448, 7.408e-4
2.449, 7.393e-4
2.450, 7.378e-4
2.451, 7.364e-4
2.452, 7.349e-4
2.453, 7.334e-4
2.454, 7.319e-4
2.455, 7.304e-4
2.456, 7.289e-4
2.457, 7.275e-4
2.458, 7.261e-4
2.459, 7.247e-4
2.460, 7.233e-4
2.461, 7.218e-4
2.462, 7.204e-4
2.463, 7.190e-4
2.464, 7.176e-4
2.465, 7.162e-4
2.466, 7.148e-4
2.467, 7.135e-4
2.468, 7.121e-4
2.469, 7.108e-4
2.470, 7.094e-4
2.471, 7.081e-4
2.472, 7.067e-4
2.473, 7.054e-4
2.474, 7.040e-4
2.475, 7.027e-4
2.476, 7.013e-4
2.477, 6.999e-4
2.478, 6.984e-4
2.479, 6.970e-4
2.480, 6.956e-4
2.481, 6.941e-4
2.482, 6.927e-4
2.483, 6.913e-4
2.484, 6.900e-4
2.485, 6.886e-4
2.486, 6.871e-4
2.487, 6.858e-4
2.488, 6.843e-4
2.489, 6.829e-4
2.490, 6.815e-4
2.491, 6.801e-4
2.492, 6.786e-4
2.493, 6.772e-4
2.494, 6.758e-4
2.495, 6.743e-4
2.496, 6.729e-4
2.497, 6.715e-4
2.498, 6.700e-4
2.499, 6.686e-4

Segment 2:
2.500, 6.649e-4
2.499, 6.589e-4
2.498, 6.540e-4
2.497, 6.494e-4
2.496, 6.450e-4
2.495, 6.407e-4
2.494, 6.364e-4
2.493, 6.324e-4
2.492, 6.283e-4
2.491, 6.242e-4
2.490, 6.202e-4
2.489, 6.162e-4
2.488, 6.123e-4
2.487, 6.084e-4
2.486, 6.046e-4
2.485, 6.008e-4
2.484, 5.970e-4
2.483, 5.933e-4
2.482, 5.896e-4
2.481, 5.860e-4
2.480, 5.824e-4
2.479, 5.789e-4
2.478, 5.755e-4
2.477, 5.721e-4
2.476, 5.688e-4
2.475, 5.655e-4
2.474, 5.622e-4
2.473, 5.590e-4
2.472, 5.558e-4
2.471, 5.526e-4
2.470, 5.496e-4
2.469, 5.465e-4
2.468, 5.434e-4
2.467, 5.404e-4
2.466, 5.374e-4
2.465, 5.345e-4
2.464, 5.316e-4
2.463, 5.287e-4
2.462, 5.258e-4
2.461, 5.230e-4
2.460, 5.201e-4
2.459, 5.173e-4
2.458, 5.145e-4
2.457, 5.117e-4
2.456, 5.090e-4
2.455, 5.063e-4
2.454, 5.037e-4
2.453, 5.010e-4
2.452, 4.983e-4
2.451, 4.958e-4
2.450, 4.932e-4
2.449, 4.906e-4
2.448, 4.881e-4
2.447, 4.855e-4
2.446, 4.830e-4
2.445, 4.805e-4
2.444, 4.781e-4
2.443, 4.757e-4
2.442, 4.733e-4
2.441, 4.708e-4
2.440, 4.684e-4
2.439, 4.660e-4
2.438, 4.636e-4
2.437, 4.612e-4
2.436, 4.588e-4
2.435, 4.565e-4
2.434, 4.542e-4
2.433, 4.518e-4
2.432, 4.495e-4
2.431, 4.471e-4
2.430, 4.448e-4
2.429, 4.425e-4
2.428, 4.402e-4
2.427, 4.378e-4
2.426, 4.356e-4
2.425, 4.333e-4
2.424, 4.310e-4
2.423, 4.287e-4
2.422, 4.265e-4
2.421, 4.242e-4
2.420, 4.220e-4
2.419, 4.198e-4
2.418, 4.175e-4
2.417, 4.153e-4
2.416, 4.130e-4
2.415, 4.108e-4
2.414, 4.086e-4
2.413, 4.063e-4
2.412, 4.041e-4
2.411, 4.019e-4
2.410, 3.997e-4
2.409, 3.975e-4
2.408, 3.953e-4
2.407, 3.931e-4
2.406, 3.909e-4
2.405, 3.887e-4
2.404, 3.865e-4
2.403, 3.844e-4
2.402, 3.822e-4
2.401, 3.801e-4
2.400, 3.779e-4
2.399, 3.758e-4
2.398, 3.736e-4
2.397, 3.715e-4
2.396, 3.694e-4
2.395, 3.672e-4
2.394, 3.651e-4
2.393, 3.629e-4
2.392, 3.608e-4
2.391, 3.586e-4
2.390, 3.565e-4
2.389, 3.544e-4
2.388, 3.523e-4
2.387, 3.502e-4
2.386, 3.481e-4
2.385, 3.460e-4
2.384, 3.439e-4
2.383, 3.419e-4
2.382, 3.398e-4
2.381, 3.377e-4
2.380, 3.356e-4
2.379, 3.336e-4
2.378, 3.314e-4
2.377, 3.294e-4
2.376, 3.273e-4
2.375, 3.252e-4
2.374, 3.233e-4
2.373, 3.212e-4
2.372, 3.192e-4
2.371, 3.171e-4
2.370, 3.151e-4
2.369, 3.130e-4
2.368, 3.110e-4
2.367, 3.090e-4
2.366, 3.069e-4
2.365, 3.049e-4
2.364, 3.030e-4
2.363, 3.010e-4
2.362, 2.990e-4
2.361, 2.971e-4
2.360, 2.951e-4
2.359, 2.932e-4
2.358, 2.913e-4
2.357, 2.894e-4
2.356, 2.875e-4
2.355, 2.856e-4
2.354, 2.837e-4
2.353, 2.818e-4
2.352, 2.800e-4
2.351, 2.782e-4
2.350, 2.764e-4
2.349, 2.746e-4
2.348, 2.728e-4
2.347, 2.710e-4
2.346, 2.693e-4
2.345, 2.676e-4
2.344, 2.659e-4
2.343, 2.642e-4
2.342, 2.625e-4
2.341, 2.608e-4
2.340, 2.591e-4
2.339, 2.575e-4
2.338, 2.559e-4
2.337, 2.543e-4
2.336, 2.526e-4
2.335, 2.510e-4
2.334, 2.494e-4
2.333, 2.479e-4
2.332, 2.463e-4
2.331, 2.448e-4
2.330, 2.432e-4
2.329, 2.417e-4
2.328, 2.402e-4
2.327, 2.387e-4
2.326, 2.372e-4
2.325, 2.357e-4
2.324, 2.342e-4
2.323, 2.328e-4
2.322, 2.313e-4
2.321, 2.299e-4
2.320, 2.284e-4
2.319, 2.270e-4
2.318, 2.256e-4
2.317, 2.243e-4
2.316, 2.228e-4
2.315, 2.215e-4
2.314, 2.201e-4
2.313, 2.187e-4
2.312, 2.174e-4
2.311, 2.160e-4
2.310, 2.147e-4
2.309, 2.134e-4
2.308, 2.120e-4
2.307, 2.107e-4
2.306, 2.094e-4
2.305, 2.081e-4
2.304, 2.067e-4
2.303, 2.054e-4
2.302, 2.042e-4
2.301, 2.029e-4
2.300, 2.016e-4
2.299, 2.004e-4
2.298, 1.991e-4
2.297, 1.979e-4
2.296, 1.966e-4
2.295, 1.954e-4
2.294, 1.942e-4
2.293, 1.930e-4
2.292, 1.918e-4
2.291, 1.906e-4
2.290, 1.894e-4
2.289, 1.883e-4
2.288, 1.871e-4
2.287, 1.859e-4
2.286, 1.848e-4
2.285, 1.836e-4
2.284, 1.825e-4
2.283, 1.814e-4
2.282, 1.802e-4
2.281, 1.791e-4
2.280, 1.780e-4
2.279, 1.769e-4
2.278, 1.758e-4
2.277, 1.748e-4
2.276, 1.737e-4
2.275, 1.726e-4
2.274, 1.715e-4
2.273, 1.705e-4
2.272, 1.696e-4
2.271, 1.686e-4
2.270, 1.676e-4
2.269, 1.666e-4
2.268, 1.655e-4
2.267, 1.645e-4
2.266, 1.635e-4
2.265, 1.625e-4
2.264, 1.616e-4
2.263, 1.605e-4
2.262, 1.596e-4
2.261, 1.586e-4
2.260, 1.576e-4
2.259, 1.567e-4
2.258, 1.557e-4
2.257, 1.548e-4
2.256, 1.539e-4
2.255, 1.529e-4
2.254, 1.519e-4
2.253, 1.510e-4
2.252, 1.501e-4
2.251, 1.492e-4
2.250, 1.483e-4
2.249, 1.474e-4
2.248, 1.465e-4
2.247, 1.456e-4
2.246, 1.448e-4
2.245, 1.439e-4
2.244, 1.430e-4
2.243, 1.421e-4
2.242, 1.413e-4
2.241, 1.404e-4
2.240, 1.396e-4
2.239, 1.387e-4
2.238, 1.379e-4
2.237, 1.370e-4
2.236, 1.362e-4
2.235, 1.354e-4
2.234, 1.346e-4
2.233, 1.338e-4
2.232, 1.330e-4
2.231, 1.322e-4
2.230, 1.314e-4
2.229, 1.306e-4
2.228, 1.298e-4
2.227, 1.290e-4
2.226, 1.282e-4
2.225, 1.275e-4
2.224, 1.268e-4
2.223, 1.260e-4
2.222, 1.253e-4
2.221, 1.246e-4
2.220, 1.238e-4
2.219, 1.232e-4
2.218, 1.224e-4
2.217, 1.218e-4
2.216, 1.211e-4
2.215, 1.204e-4
2.214, 1.197e-4
2.213, 1.190e-4
2.212, 1.183e-4
2.211, 1.177e-4
2.210, 1.170e-4
2.209, 1.164e-4
2.208, 1.157e-4
2.207, 1.151e-4
2.206, 1.144e-4
2.205, 1.138e-4
2.204, 1.132e-4
2.203, 1.126e-4
2.202, 1.120e-4
2.201, 1.114e-4
2.200, 1.108e-4
2.199, 1.102e-4
2.198, 1.096e-4
2.197, 1.090e-4
2.196, 1.083e-4
2.195, 1.078e-4
2.194, 1.072e-4
2.193, 1.066e-4
2.192, 1.060e-4
2.191, 1.054e-4
2.190, 1.049e-4
2.189, 1.043e-4
2.188, 1.037e-4
2.187, 1.032e-4
2.186, 1.026e-4
2.185, 1.020e-4
2.184, 1.015e-4
2.183, 1.009e-4
2.182, 1.004e-4
2.181, 9.982e-5
2.180, 9.925e-5
2.179, 9.871e-5
2.178, 9.817e-5
2.177, 9.763e-5
2.176, 9.710e-5
2.175, 9.653e-5
2.174, 9.598e-5
2.173, 9.545e-5
2.172, 9.489e-5
2.171, 9.436e-5
2.170, 9.385e-5
2.169, 9.329e-5
2.168, 9.278e-5
2.167, 9.224e-5
2.166, 9.171e-5
2.165, 9.116e-5
2.164, 9.060e-5
2.163, 9.015e-5
2.162, 8.960e-5
2.161, 8.908e-5
2.160, 8.856e-5
2.159, 8.803e-5
2.158, 8.753e-5
2.157, 8.701e-5
2.156, 8.646e-5
2.155, 8.595e-5
2.154, 8.543e-5
2.153, 8.493e-5
2.152, 8.439e-5
2.151, 8.386e-5
2.150, 8.335e-5
2.149, 8.282e-5
2.148, 8.229e-5
2.147, 8.180e-5
2.146, 8.125e-5
2.145, 8.074e-5
2.144, 8.024e-5
2.143, 7.971e-5
2.142, 7.921e-5
2.141, 7.866e-5
2.140, 7.814e-5
2.139, 7.764e-5
2.138, 7.713e-5
2.137, 7.663e-5
2.136, 7.611e-5
2.135, 7.559e-5
2.134, 7.508e-5
2.133, 7.456e-5
2.132, 7.402e-5
2.131, 7.354e-5
2.130, 7.303e-5
2.129, 7.252e-5
2.128, 7.200e-5
2.127, 7.151e-5
2.126, 7.097e-5
2.125, 7.048e-5
2.124, 6.994e-5
2.123, 6.944e-5
2.122, 6.893e-5
2.121, 6.840e-5
2.120, 6.792e-5
2.119, 6.738e-5
2.118, 6.687e-5
2.117, 6.635e-5
2.116, 6.582e-5
2.115, 6.532e-5
2.114, 6.478e-5
2.113, 6.430e-5
2.112, 6.381e-5
2.111, 6.328e-5
2.110, 6.275e-5
2.109, 6.221e-5
2.108, 6.169e-5
2.107, 6.120e-5
2.106, 6.066e-5
2.105, 6.014e-5
2.104, 5.962e-5
2.103, 5.912e-5
2.102, 5.859e-5
2.101, 5.806e-5
2.100, 5.751e-5
2.099, 5.702e-5
2.098, 5.649e-5
2.097, 5.598e-5
2.096, 5.548e-5
2.095, 5.495e-5
2.094, 5.442e-5
2.093, 5.389e-5
2.092, 5.334e-5
2.091, 5.280e-5
2.090, 5.225e-5
2.089, 5.173e-5
2.088, 5.120e-5
2.087, 5.068e-5
2.086, 5.018e-5
2.085, 4.965e-5
2.084, 4.909e-5
2.083, 4.859e-5
2.082, 4.805e-5
2.081, 4.749e-5
2.080, 4.700e-5
2.079, 4.645e-5
2.078, 4.594e-5
2.077, 4.540e-5
2.076, 4.486e-5
2.075, 4.433e-5
2.074, 4.379e-5
2.073, 4.326e-5
2.072, 4.273e-5
2.071, 4.218e-5
2.070, 4.165e-5
2.069, 4.111e-5
2.068, 4.057e-5
2.067, 4.006e-5
2.066, 3.948e-5
2.065, 3.893e-5
2.064, 3.842e-5
2.063, 3.784e-5
2.062, 3.730e-5
2.061, 3.675e-5
2.060, 3.620e-5
2.059, 3.569e-5
2.058, 3.513e-5
2.057, 3.459e-5
2.056, 3.405e-5
2.055, 3.349e-5
2.054, 3.296e-5
2.053, 3.241e-5
2.052, 3.180e-5
2.051, 3.129e-5
2.050, 3.070e-5
2.049, 3.013e-5
2.048, 2.966e-5
2.047, 2.908e-5
2.046, 2.852e-5
2.045, 2.794e-5
2.044, 2.738e-5
2.043, 2.679e-5
2.042, 2.622e-5
2.041, 2.563e-5
2.040, 2.508e-5
2.039, 2.449e-5
2.038, 2.390e-5
2.037, 2.329e-5
2.036, 2.270e-5
2.035, 2.215e-5
2.034, 2.155e-5
2.033, 2.094e-5
2.032, 2.038e-5
2.031, 1.976e-5
2.030, 1.916e-5
2.029, 1.857e-5
2.028, 1.796e-5
2.027, 1.738e-5
2.026, 1.676e-5
2.025, 1.620e-5
2.024, 1.566e-5
2.023, 1.506e-5
2.022, 1.448e-5
2.021, 1.380e-5
2.020, 1.312e-5
2.019, 1.257e-5
2.018, 1.195e-5
2.017, 1.134e-5
2.016, 1.072e-5
2.015, 1.008e-5
2.014, 9.493e-6
2.013, 8.832e-6
2.012, 8.184e-6
2.011, 7.588e-6
2.010, 6.907e-6
2.009, 6.292e-6
2.008, 5.648e-6
2.007, 5.005e-6
2.006, 4.354e-6
2.005, 3.680e-6
2.004, 3.002e-6
2.003, 2.396e-6
2.002, 1.694e-6
2.001, 1.024e-6
2.000, 3.512e-7
1.999, -3.153e-7
1.998, -1.000e-6
1.997, -1.679e-6
1.996, -2.384e-6
1.995, -3.032e-6
1.994, -3.712e-6
1.993, -4.399e-6
1.992, -5.049e-6
1.991, -5.766e-6
1.990, -6.468e-6
1.989, -7.172e-6
1.988, -7.888e-6
1.987, -8.555e-6
1.986, -9.295e-6
1.985, -1.004e-5
1.984, -1.071e-5
1.983, -1.147e-5
1.982, -1.218e-5
1.981, -1.289e-5
1.980, -1.363e-5
1.979, -1.442e-5
1.978, -1.520e-5
1.977, -1.593e-5
1.976, -1.665e-5
1.975, -1.743e-5
1.974, -1.818e-5
1.973, -1.897e-5
1.972, -1.977e-5
1.971, -2.051e-5
1.970, -2.129e-5
1.969, -2.209e-5
1.968, -2.288e-5
1.967, -2.372e-5
1.966, -2.455e-5
1.965, -2.535e-5
1.964, -2.617e-5
1.963, -2.695e-5
1.962, -2.778e-5
1.961, -2.862e-5
1.960, -2.945e-5
1.959, -3.031e-5
1.958, -3.111e-5
1.957, -3.194e-5
1.956, -3.284e-5
1.955, -3.367e-5
1.954, -3.455e-5
1.953, -3.541e-5
1.952, -3.626e-5
1.951, -3.717e-5
1.950, -3.806e-5
1.949, -3.893e-5
1.948, -3.986e-5
1.947, -4.076e-5
1.946, -4.163e-5
1.945, -4.253e-5
1.944, -4.344e-5
1.943, -4.436e-5
1.942, -4.527e-5
1.941, -4.621e-5
1.940, -4.716e-5
1.939, -4.808e-5
1.938, -4.905e-5
1.937, -5.003e-5
1.936, -5.100e-5
1.935, -5.198e-5
1.934, -5.294e-5
1.933, -5.395e-5
1.932, -5.491e-5
1.931, -5.590e-5
1.930, -5.691e-5
1.929, -5.791e-5
1.928, -5.897e-5
1.927, -6.000e-5
1.926, -6.101e-5
1.925, -6.208e-5
1.924, -6.317e-5
1.923, -6.419e-5
1.922, -6.526e-5
1.921, -6.636e-5
1.920, -6.737e-5
1.919, -6.852e-5
1.918, -6.958e-5
1.917, -7.067e-5
1.916, -7.180e-5
1.915, -7.292e-5
1.914, -7.404e-5
1.913, -7.519e-5
1.912, -7.632e-5
1.911, -7.750e-5
1.910, -7.863e-5
1.909, -7.982e-5
1.908, -8.100e-5
1.907, -8.212e-5
1.906, -8.331e-5
1.905, -8.453e-5
1.904, -8.570e-5
1.903, -8.696e-5
1.902, -8.820e-5
1.901, -8.945e-5
1.900, -9.072e-5
1.899, -9.197e-5
1.898, -9.325e-5
1.897, -9.452e-5
1.896, -9.583e-5
1.895, -9.714e-5
1.894, -9.845e-5
1.893, -9.975e-5
1.892, -1.012e-4
1.891, -1.025e-4
1.890, -1.038e-4
1.889, -1.052e-4
1.888, -1.066e-4
1.887, -1.080e-4
1.886, -1.093e-4
1.885, -1.108e-4
1.884, -1.122e-4
1.883, -1.136e-4
1.882, -1.150e-4
1.881, -1.164e-4
1.880, -1.179e-4
1.879, -1.194e-4
1.878, -1.208e-4
1.877, -1.223e-4
1.876, -1.238e-4
1.875, -1.253e-4
1.874, -1.268e-4
1.873, -1.284e-4
1.872, -1.299e-4
1.871, -1.315e-4
1.870, -1.331e-4
1.869, -1.347e-4
1.868, -1.363e-4
1.867, -1.378e-4
1.866, -1.393e-4
1.865, -1.410e-4
1.864, -1.426e-4
1.863, -1.443e-4
1.862, -1.459e-4
1.861, -1.477e-4
1.860, -1.494e-4
1.859, -1.511e-4
1.858, -1.528e-4
1.857, -1.546e-4
1.856, -1.564e-4
1.855, -1.581e-4
1.854, -1.599e-4
1.853, -1.616e-4
1.852, -1.634e-4
1.851, -1.653e-4
1.850, -1.672e-4
1.849, -1.691e-4
1.848, -1.709e-4
1.847, -1.729e-4
1.846, -1.748e-4
1.845, -1.768e-4
1.844, -1.789e-4
1.843, -1.809e-4
1.842, -1.829e-4
1.841, -1.850e-4
1.840, -1.870e-4
1.839, -1.890e-4
1.838, -1.911e-4
1.837, -1.932e-4
1.836, -1.953e-4
1.835, -1.974e-4
1.834, -1.995e-4
1.833, -2.017e-4
1.832, -2.039e-4
1.831, -2.062e-4
1.830, -2.083e-4
1.829, -2.106e-4
1.828, -2.129e-4
1.827, -2.152e-4
1.826, -2.175e-4
1.825, -2.199e-4
1.824, -2.222e-4
1.823, -2.246e-4
1.822, -2.270e-4
1.821, -2.295e-4
1.820, -2.320e-4
1.819, -2.345e-4
1.818, -2.370e-4
1.817, -2.395e-4
1.816, -2.421e-4
1.815, -2.447e-4
1.814, -2.474e-4
1.813, -2.501e-4
1.812, -2.528e-4
1.811, -2.556e-4
1.810, -2.584e-4
1.809, -2.612e-4
1.808, -2.640e-4
1.807, -2.669e-4
1.806, -2.698e-4
1.805, -2.727e-4
1.804, -2.757e-4
1.803, -2.786e-4
1.802, -2.816e-4
1.801, -2.847e-4
1.800, -2.878e-4
1.799, -2.909e-4
1.798, -2.939e-4
1.797, -2.971e-4
1.796, -3.003e-4
1.795, -3.035e-4
1.794, -3.067e-4
1.793, -3.100e-4
1.792, -3.133e-4
1.791, -3.166e-4
1.790, -3.199e-4
1.789, -3.233e-4
1.788, -3.266e-4
1.787, -3.300e-4
1.786, -3.336e-4
1.785, -3.370e-4
1.784, -3.405e-4
1.783, -3.440e-4
1.782, -3.475e-4
1.781, -3.510e-4
1.780, -3.545e-4
1.779, -3.581e-4
1.778, -3.617e-4
1.777, -3.653e-4
1.776, -3.689e-4
1.775, -3.725e-4
1.774, -3.761e-4
1.773, -3.798e-4
1.772, -3.835e-4
1.771, -3.872e-4
1.770, -3.909e-4
1.769, -3.946e-4
1.768, -3.983e-4
1.767, -4.021e-4
1.766, -4.058e-4
1.765, -4.096e-4
1.764, -4.134e-4
1.763, -4.172e-4
1.762, -4.210e-4
1.761, -4.248e-4
1.760, -4.286e-4
1.759, -4.324e-4
1.758, -4.362e-4
1.757, -4.400e-4
1.756, -4.439e-4
1.755, -4.476e-4
1.754, -4.514e-4
1.753, -4.552e-4
1.752, -4.590e-4
1.751, -4.629e-4
1.750, -4.667e-4
1.749, -4.705e-4
1.748, -4.744e-4
1.747, -4.782e-4
1.746, -4.821e-4
1.745, -4.861e-4
1.744, -4.900e-4
1.743, -4.938e-4
1.742, -4.977e-4
1.741, -5.016e-4
1.740, -5.055e-4
1.739, -5.092e-4
1.738, -5.131e-4
1.737, -5.170e-4
1.736, -5.208e-4
1.735, -5.247e-4
1.734, -5.285e-4
1.733, -5.324e-4
1.732, -5.363e-4
1.731, -5.401e-4
1.730, -5.439e-4
1.729, -5.477e-4
1.728, -5.516e-4
1.727, -5.554e-4
1.726, -5.592e-4
1.725, -5.631e-4
1.724, -5.670e-4
1.723, -5.708e-4
1.722, -5.746e-4
1.721, -5.784e-4
1.720, -5.822e-4
1.719, -5.860e-4
1.718, -5.898e-4
1.717, -5.936e-4
1.716, -5.974e-4
1.715, -6.010e-4
1.714, -6.048e-4
1.713, -6.085e-4
1.712, -6.123e-4
1.711, -6.161e-4
1.710, -6.198e-4
1.709, -6.235e-4
1.708, -6.273e-4
1.707, -6.310e-4
1.706, -6.348e-4
1.705, -6.385e-4
1.704, -6.424e-4
1.703, -6.461e-4
1.702, -6.497e-4
1.701, -6.534e-4
1.700, -6.571e-4
1.699, -6.608e-4
1.698, -6.645e-4
1.697, -6.682e-4
1.696, -6.718e-4
1.695, -6.755e-4
1.694, -6.792e-4
1.693, -6.828e-4
1.692, -6.865e-4
1.691, -6.901e-4
1.690, -6.938e-4
1.689, -6.974e-4
1.688, -7.010e-4
1.687, -7.046e-4
1.686, -7.082e-4
1.685, -7.119e-4
1.684, -7.155e-4
1.683, -7.191e-4
1.682, -7.227e-4
1.681, -7.263e-4
1.680, -7.299e-4
1.679, -7.335e-4
1.678, -7.370e-4
1.677, -7.405e-4
1.676, -7.441e-4
1.675, -7.476e-4
1.674, -7.511e-4
1.673, -7.546e-4
1.672, -7.580e-4
1.671, -7.615e-4
1.670, -7.650e-4
1.669, -7.685e-4
1.668, -7.720e-4
1.667, -7.754e-4
1.666, -7.788e-4
1.665, -7.823e-4
1.664, -7.857e-4
1.663, -7.892e-4
1.662, -7.926e-4
1.661, -7.961e-4
1.660, -7.996e-4
1.659, -8.030e-4
1.658, -8.064e-4
1.657, -8.098e-4
1.656, -8.132e-4
1.655, -8.165e-4
1.654, -8.199e-4
1.653, -8.233e-4
1.652, -8.266e-4
1.651, -8.299e-4
1.650, -8.333e-4
1.649, -8.366e-4
1.648, -8.399e-4
1.647, -8.432e-4
1.646, -8.465e-4
1.645, -8.498e-4
1.644, -8.531e-4
1.643, -8.563e-4
1.642, -8.596e-4
1.641, -8.629e-4
1.640, -8.662e-4
1.639, -8.695e-4
1.638, -8.728e-4
1.637, -8.761e-4
1.636, -8.793e-4
1.635, -8.825e-4
1.634, -8.857e-4
1.633, -8.888e-4
1.632, -8.920e-4
1.631, -8.951e-4
1.630, -8.982e-4
1.629, -9.014e-4
1.628, -9.045e-4
1.627, -9.076e-4
1.626, -9.106e-4
1.625, -9.136e-4
1.624, -9.167e-4
1.623, -9.198e-4
1.622, -9.228e-4
1.621, -9.258e-4
1.620, -9.289e-4
1.619, -9.318e-4
1.618, -9.348e-4
1.617, -9.378e-4
1.616, -9.408e-4
1.615, -9.438e-4
1.614, -9.467e-4
1.613, -9.497e-4
1.612, -9.526e-4
1.611, -9.555e-4
1.610, -9.584e-4
1.609, -9.613e-4
1.608, -9.642e-4
1.607, -9.670e-4
1.606, -9.698e-4
1.605, -9.726e-4
1.604, -9.754e-4
1.603, -9.782e-4
1.602, -9.809e-4
1.601, -9.837e-4
1.600, -9.864e-4
1.599, -9.890e-4
1.598, -9.917e-4
1.597, -9.943e-4
1.596, -9.969e-4
1.595, -9.995e-4
1.594, -1.002e-3
1.593, -1.005e-3
1.592, -1.007e-3
1.591, -1.009e-3
1.590, -1.012e-3
1.589, -1.014e-3
1.588, -1.017e-3
1.587, -1.019e-3
1.586, -1.021e-3
1.585, -1.024e-3
1.584, -1.026e-3
[...]
1.344, -8.280e-4
1.343, -8.261e-4
1.342, -8.242e-4
1.341, -8.223e-4
1.340, -8.204e-4
1.339, -8.182e-4
1.338, -8.160e-4
1.337, -8.141e-4
1.336, -8.122e-4
1.335, -8.103e-4
1.334, -8.083e-4
1.333, -8.063e-4
1.332, -8.043e-4
1.331, -8.023e-4
1.330, -8.003e-4
1.329, -7.983e-4
1.328, -7.963e-4
1.327, -7.942e-4
1.326, -7.923e-4
1.325, -7.903e-4
1.324, -7.883e-4
1.323, -7.863e-4
1.322, -7.843e-4
1.321, -7.823e-4
1.320, -7.802e-4
1.319, -7.783e-4
1.318, -7.763e-4
1.317, -7.744e-4
1.316, -7.724e-4
1.315, -7.704e-4
1.314, -7.685e-4
1.313, -7.665e-4
1.312, -7.646e-4
1.311, -7.627e-4
1.310, -7.608e-4
1.309, -7.589e-4
1.308, -7.571e-4
1.307, -7.553e-4
1.306, -7.535e-4
1.305, -7.517e-4
1.304, -7.498e-4
1.303, -7.480e-4
1.302, -7.461e-4
1.301, -7.443e-4
1.300, -7.425e-4
1.299, -7.407e-4
1.298, -7.389e-4
1.297, -7.371e-4
1.296, -7.353e-4
1.295, -7.335e-4
1.294, -7.317e-4
1.293, -7.299e-4
1.292, -7.281e-4
1.291, -7.264e-4
1.290, -7.246e-4
1.289, -7.228e-4
1.288, -7.211e-4
1.287, -7.193e-4
1.286, -7.175e-4
1.285, -7.157e-4
1.284, -7.140e-4
1.283, -7.122e-4
1.282, -7.105e-4
1.281, -7.088e-4
1.280, -7.070e-4
1.279, -7.053e-4
1.278, -7.036e-4
1.277, -7.019e-4
1.276, -7.001e-4
1.275, -6.985e-4
1.274, -6.968e-4
1.273, -6.951e-4
1.272, -6.933e-4
1.271, -6.916e-4
1.270, -6.899e-4
1.269, -6.882e-4
1.268, -6.864e-4
1.267, -6.847e-4
1.266, -6.829e-4
1.265, -6.812e-4
1.264, -6.794e-4
1.263, -6.776e-4
1.262, -6.758e-4
1.261, -6.740e-4
1.260, -6.721e-4
1.259, -6.703e-4
1.258, -6.684e-4
1.257, -6.665e-4
1.256, -6.646e-4
1.255, -6.627e-4
1.254, -6.607e-4
1.253, -6.588e-4
1.252, -6.569e-4
1.251, -6.548e-4
1.250, -6.529e-4
1.249, -6.509e-4
1.248, -6.488e-4
1.247, -6.468e-4
1.246, -6.447e-4
1.245, -6.427e-4
1.244, -6.406e-4
1.243, -6.384e-4
1.242, -6.363e-4
1.241, -6.342e-4
1.240, -6.320e-4
1.239, -6.299e-4
1.238, -6.277e-4
1.237, -6.255e-4
1.236, -6.234e-4
1.235, -6.212e-4
1.234, -6.189e-4
1.233, -6.167e-4
1.232, -6.144e-4
1.231, -6.121e-4
1.230, -6.098e-4
1.229, -6.075e-4
1.228, -6.052e-4
1.227, -6.028e-4
1.226, -6.005e-4
1.225, -5.981e-4
1.224, -5.957e-4
1.223, -5.932e-4
1.222, -5.907e-4
1.221, -5.881e-4
1.220, -5.856e-4
1.219, -5.830e-4
1.218, -5.804e-4
1.217, -5.778e-4
1.216, -5.751e-4
1.215, -5.724e-4
1.214, -5.697e-4
1.213, -5.669e-4
1.212, -5.641e-4
1.211, -5.612e-4
1.210, -5.583e-4
1.209, -5.554e-4
1.208, -5.525e-4
1.207, -5.496e-4
1.206, -5.467e-4
1.205, -5.437e-4
1.204, -5.408e-4
1.203, -5.377e-4
1.202, -5.347e-4
1.201, -5.317e-4
1.200, -5.286e-4
1.199, -5.256e-4
1.198, -5.225e-4
1.197, -5.194e-4
1.196, -5.163e-4
1.195, -5.132e-4
1.194, -5.101e-4
1.193, -5.070e-4
1.192, -5.039e-4
1.191, -5.008e-4
1.190, -4.977e-4
1.189, -4.945e-4
1.188, -4.914e-4
1.187, -4.883e-4
1.186, -4.851e-4
1.185, -4.819e-4
1.184, -4.788e-4
1.183, -4.757e-4
1.182, -4.726e-4
1.181, -4.695e-4
1.180, -4.664e-4
1.179, -4.633e-4
1.178, -4.602e-4
1.177, -4.571e-4
1.176, -4.540e-4
1.175, -4.510e-4
1.174, -4.479e-4
1.173, -4.450e-4
1.172, -4.420e-4
1.171, -4.389e-4
1.170, -4.359e-4
1.169, -4.329e-4
1.168, -4.298e-4
1.167, -4.269e-4
1.166, -4.238e-4
1.165, -4.208e-4
1.164, -4.178e-4
1.163, -4.147e-4
1.162, -4.117e-4
1.161, -4.086e-4
1.160, -4.055e-4
1.159, -4.025e-4
1.158, -3.994e-4
1.157, -3.963e-4
1.156, -3.932e-4
1.155, -3.901e-4
1.154, -3.870e-4
1.153, -3.838e-4
1.152, -3.806e-4
1.151, -3.775e-4
1.150, -3.744e-4
1.149, -3.713e-4
1.148, -3.682e-4
1.147, -3.652e-4
1.146, -3.623e-4
1.145, -3.593e-4
1.144, -3.564e-4
1.143, -3.536e-4
1.142, -3.508e-4
1.141, -3.480e-4
1.140, -3.453e-4
1.139, -3.425e-4
1.138, -3.398e-4
1.137, -3.372e-4
1.136, -3.345e-4
1.135, -3.319e-4
1.134, -3.293e-4
1.133, -3.268e-4
1.132, -3.244e-4
1.131, -3.219e-4
1.130, -3.196e-4
1.129, -3.172e-4
1.128, -3.150e-4
1.127, -3.128e-4
1.126, -3.106e-4
1.125, -3.084e-4
1.124, -3.063e-4
1.123, -3.042e-4
1.122, -3.021e-4
1.121, -3.001e-4
1.120, -2.981e-4
1.119, -2.962e-4
1.118, -2.943e-4
1.117, -2.924e-4
1.116, -2.906e-4
1.115, -2.888e-4
1.114, -2.869e-4
1.113, -2.852e-4
1.112, -2.834e-4
1.111, -2.816e-4
1.110, -2.799e-4
1.109, -2.782e-4
1.108, -2.765e-4
1.107, -2.748e-4
1.106, -2.731e-4
1.105, -2.715e-4
1.104, -2.698e-4
1.103, -2.682e-4
1.102, -2.666e-4
1.101, -2.650e-4
1.100, -2.634e-4
1.099, -2.618e-4
1.098, -2.603e-4
1.097, -2.587e-4
1.096, -2.572e-4
1.095, -2.557e-4
1.094, -2.541e-4
1.093, -2.526e-4
1.092, -2.511e-4
1.091, -2.496e-4
1.090, -2.481e-4
1.089, -2.467e-4
1.088, -2.452e-4
1.087, -2.438e-4
1.086, -2.423e-4
1.085, -2.409e-4
1.084, -2.395e-4
1.083, -2.381e-4
1.082, -2.367e-4
1.081, -2.353e-4
1.080, -2.340e-4
1.079, -2.326e-4
1.078, -2.312e-4
1.077, -2.299e-4
1.076, -2.286e-4
1.075, -2.272e-4
1.074, -2.259e-4
1.073, -2.246e-4
1.072, -2.233e-4
1.071, -2.220e-4
1.070, -2.207e-4
1.069, -2.194e-4
1.068, -2.182e-4
1.067, -2.169e-4
1.066, -2.156e-4
1.065, -2.144e-4
1.064, -2.131e-4
1.063, -2.119e-4
1.062, -2.106e-4
1.061, -2.094e-4
1.060, -2.082e-4
1.059, -2.070e-4
1.058, -2.057e-4
1.057, -2.045e-4
1.056, -2.033e-4
1.055, -2.021e-4
1.054, -2.008e-4
1.053, -1.996e-4
1.052, -1.984e-4
1.051, -1.972e-4
1.050, -1.961e-4
1.049, -1.949e-4
1.048, -1.937e-4
1.047, -1.925e-4
1.046, -1.913e-4
1.045, -1.901e-4
1.044, -1.890e-4
1.043, -1.878e-4
1.042, -1.867e-4
1.041, -1.855e-4
1.040, -1.844e-4
1.039, -1.833e-4
1.038, -1.821e-4
1.037, -1.810e-4
1.036, -1.799e-4
1.035, -1.788e-4
1.034, -1.776e-4
1.033, -1.765e-4
1.032, -1.754e-4
1.031, -1.744e-4
1.030, -1.733e-4
1.029, -1.722e-4
1.028, -1.712e-4
1.027, -1.701e-4
1.026, -1.690e-4
1.025, -1.680e-4
1.024, -1.670e-4
1.023, -1.659e-4
1.022, -1.649e-4
1.021, -1.639e-4
1.020, -1.628e-4
1.019, -1.618e-4
1.018, -1.608e-4
1.017, -1.598e-4
1.016, -1.588e-4
1.015, -1.579e-4
1.014, -1.569e-4
1.013, -1.559e-4
1.012, -1.549e-4
1.011, -1.540e-4
1.010, -1.530e-4
1.009, -1.520e-4
1.008, -1.511e-4
1.007, -1.501e-4
1.006, -1.492e-4
1.005, -1.482e-4
1.004, -1.473e-4
1.003, -1.464e-4
1.002, -1.454e-4
1.001, -1.445e-4

Segment 3:
1.000, -1.433e-4
1.001, -1.420e-4
1.002, -1.407e-4
1.003, -1.394e-4
1.004, -1.383e-4
1.005, -1.371e-4
1.006, -1.359e-4
1.007, -1.347e-4
1.008, -1.335e-4
1.009, -1.323e-4
1.010, -1.312e-4
1.011, -1.300e-4
1.012, -1.289e-4
1.013, -1.278e-4
1.014, -1.267e-4
1.015, -1.256e-4
1.016, -1.245e-4
1.017, -1.235e-4
1.018, -1.224e-4
1.019, -1.213e-4
1.020, -1.203e-4
1.021, -1.193e-4
1.022, -1.183e-4
1.023, -1.173e-4
1.024, -1.162e-4
1.025, -1.152e-4
1.026, -1.142e-4
1.027, -1.132e-4
1.028, -1.122e-4
1.029, -1.113e-4
1.030, -1.103e-4
1.031, -1.093e-4
1.032, -1.084e-4
1.033, -1.074e-4
1.034, -1.064e-4
1.035, -1.055e-4
1.036, -1.045e-4
1.037, -1.036e-4
1.038, -1.027e-4
1.039, -1.017e-4
1.040, -1.008e-4
1.041, -9.983e-5
1.042, -9.891e-5
1.043, -9.802e-5
1.044, -9.712e-5
1.045, -9.622e-5
1.046, -9.533e-5
1.047, -9.445e-5
1.048, -9.359e-5
1.049, -9.273e-5
1.050, -9.186e-5
1.051, -9.100e-5
1.052, -9.017e-5
1.053, -8.934e-5
1.054, -8.849e-5
1.055, -8.766e-5
1.056, -8.683e-5
1.057, -8.602e-5
1.058, -8.521e-5
1.059, -8.441e-5
1.060, -8.361e-5
1.061, -8.284e-5
1.062, -8.208e-5
1.063, -8.133e-5
1.064, -8.059e-5
1.065, -7.986e-5
1.066, -7.912e-5
1.067, -7.838e-5
1.068, -7.765e-5
1.069, -7.694e-5
1.070, -7.622e-5
1.071, -7.551e-5
1.072, -7.481e-5
1.073, -7.411e-5
1.074, -7.341e-5
1.075, -7.271e-5
1.076, -7.203e-5
1.077, -7.136e-5
1.078, -7.069e-5
1.079, -7.004e-5
1.080, -6.940e-5
1.081, -6.876e-5
1.082, -6.812e-5
1.083, -6.750e-5
1.084, -6.689e-5
1.085, -6.628e-5
1.086, -6.567e-5
1.087, -6.508e-5
1.088, -6.449e-5
1.089, -6.390e-5
1.090, -6.331e-5
1.091, -6.273e-5
1.092, -6.216e-5
1.093, -6.160e-5
1.094, -6.104e-5
1.095, -6.048e-5
1.096, -5.993e-5
1.097, -5.940e-5
1.098, -5.887e-5
1.099, -5.833e-5
1.100, -5.779e-5
1.101, -5.726e-5
1.102, -5.674e-5
1.103, -5.623e-5
1.104, -5.573e-5
1.105, -5.523e-5
1.106, -5.473e-5
1.107, -5.425e-5
1.108, -5.377e-5
1.109, -5.329e-5
1.110, -5.280e-5
1.111, -5.232e-5
1.112, -5.185e-5
1.113, -5.139e-5
1.114, -5.094e-5
1.115, -5.048e-5
1.116, -5.002e-5
1.117, -4.957e-5
1.118, -4.913e-5
1.119, -4.869e-5
1.120, -4.826e-5
1.121, -4.783e-5
1.122, -4.740e-5
1.123, -4.698e-5
1.124, -4.656e-5
1.125, -4.615e-5
1.126, -4.574e-5
1.127, -4.532e-5
1.128, -4.492e-5
1.129, -4.451e-5
1.130, -4.412e-5
1.131, -4.374e-5
1.132, -4.337e-5
1.133, -4.299e-5
1.134, -4.261e-5
1.135, -4.223e-5
1.136, -4.186e-5
1.137, -4.150e-5
1.138, -4.116e-5
1.139, -4.081e-5
1.140, -4.045e-5
1.141, -4.010e-5
1.142, -3.974e-5
1.143, -3.939e-5
1.144, -3.905e-5
1.145, -3.872e-5
1.146, -3.839e-5
1.147, -3.806e-5
1.148, -3.773e-5
1.149, -3.740e-5
1.150, -3.708e-5
1.151, -3.675e-5
1.152, -3.644e-5
1.153, -3.613e-5
1.154, -3.583e-5
1.155, -3.552e-5
1.156, -3.522e-5
1.157, -3.492e-5
1.158, -3.462e-5
1.159, -3.433e-5
1.160, -3.403e-5
1.161, -3.373e-5
1.162, -3.345e-5
1.163, -3.316e-5
1.164, -3.287e-5
1.165, -3.259e-5
1.166, -3.230e-5
1.167, -3.202e-5
1.168, -3.175e-5
1.169, -3.148e-5
1.170, -3.122e-5
1.171, -3.096e-5
1.172, -3.070e-5
1.173, -3.044e-5
1.174, -3.019e-5
1.175, -2.993e-5
1.176, -2.967e-5
1.177, -2.941e-5
1.178, -2.915e-5
1.179, -2.889e-5
1.180, -2.864e-5
1.181, -2.839e-5
1.182, -2.814e-5
1.183, -2.789e-5
1.184, -2.764e-5
1.185, -2.738e-5
1.186, -2.713e-5
1.187, -2.689e-5
1.188, -2.666e-5
1.189, -2.643e-5
1.190, -2.621e-5
1.191, -2.599e-5
1.192, -2.577e-5
1.193, -2.556e-5
1.194, -2.534e-5
1.195, -2.513e-5
1.196, -2.491e-5
1.197, -2.470e-5
1.198, -2.449e-5
1.199, -2.428e-5
1.200, -2.406e-5
1.201, -2.385e-5
1.202, -2.363e-5
1.203, -2.342e-5
1.204, -2.320e-5
1.205, -2.300e-5
1.206, -2.279e-5
1.207, -2.259e-5
1.208, -2.239e-5
1.209, -2.220e-5
1.210, -2.201e-5
1.211, -2.183e-5
1.212, -2.165e-5
1.213, -2.146e-5
1.214, -2.128e-5
1.215, -2.110e-5
1.216, -2.093e-5
1.217, -2.075e-5
1.218, -2.057e-5
1.219, -2.040e-5
1.220, -2.022e-5
1.221, -2.005e-5
1.222, -1.988e-5
1.223, -1.970e-5
1.224, -1.953e-5
1.225, -1.936e-5
1.226, -1.919e-5
1.227, -1.903e-5
1.228, -1.885e-5
1.229, -1.869e-5
1.230, -1.853e-5
1.231, -1.836e-5
1.232, -1.821e-5
1.233, -1.805e-5
1.234, -1.789e-5
1.235, -1.774e-5
1.236, -1.758e-5
1.237, -1.743e-5
1.238, -1.727e-5
1.239, -1.712e-5
1.240, -1.697e-5
1.241, -1.681e-5
1.242, -1.666e-5
1.243, -1.651e-5
1.244, -1.635e-5
1.245, -1.620e-5
1.246, -1.605e-5
1.247, -1.590e-5
1.248, -1.575e-5
1.249, -1.560e-5
1.250, -1.546e-5
1.251, -1.531e-5
1.252, -1.516e-5
1.253, -1.501e-5
1.254, -1.487e-5
1.255, -1.473e-5
1.256, -1.458e-5
1.257, -1.443e-5
1.258, -1.429e-5
1.259, -1.414e-5
1.260, -1.400e-5
1.261, -1.386e-5
1.262, -1.372e-5
1.263, -1.358e-5
1.264, -1.345e-5
1.265, -1.331e-5
1.266, -1.318e-5
1.267, -1.306e-5
1.268, -1.293e-5
1.269, -1.280e-5
1.270, -1.268e-5
1.271, -1.256e-5
1.272, -1.243e-5
1.273, -1.231e-5
1.274, -1.219e-5
1.275, -1.207e-5
1.276, -1.194e-5
1.277, -1.182e-5
1.278, -1.170e-5
1.279, -1.158e-5
1.280, -1.146e-5
1.281, -1.134e-5
1.282, -1.122e-5
1.283, -1.111e-5
1.284, -1.099e-5
1.285, -1.088e-5
1.286, -1.077e-5
1.287, -1.066e-5
1.288, -1.055e-5
1.289, -1.045e-5
1.290, -1.034e-5
1.291, -1.024e-5
1.292, -1.013e-5
1.293, -1.002e-5
1.294, -9.921e-6
1.295, -9.818e-6
1.296, -9.717e-6
1.297, -9.615e-6
1.298, -9.518e-6
1.299, -9.422e-6
1.300, -9.322e-6
1.301, -9.230e-6
1.302, -9.135e-6
1.303, -9.042e-6
1.304, -8.952e-6
1.305, -8.862e-6
1.306, -8.772e-6
1.307, -8.684e-6
1.308, -8.592e-6
1.309, -8.506e-6
1.310, -8.420e-6
1.311, -8.331e-6
1.312, -8.245e-6
1.313, -8.159e-6
1.314, -8.071e-6
1.315, -7.989e-6
1.316, -7.908e-6
1.317, -7.824e-6
1.318, -7.743e-6
1.319, -7.658e-6
1.320, -7.578e-6
1.321, -7.495e-6
1.322, -7.412e-6
1.323, -7.335e-6
1.324, -7.255e-6
1.325, -7.177e-6
1.326, -7.096e-6
1.327, -7.016e-6
1.328, -6.935e-6
1.329, -6.858e-6
1.330, -6.779e-6
1.331, -6.699e-6
1.332, -6.618e-6
1.333, -6.543e-6
1.334, -6.465e-6
1.335, -6.383e-6
1.336, -6.308e-6
1.337, -6.230e-6
1.338, -6.153e-6
1.339, -6.079e-6
1.340, -6.001e-6
1.341, -5.927e-6
1.342, -5.853e-6
1.343, -5.778e-6
1.344, -5.703e-6
1.345, -5.628e-6
1.346, -5.550e-6
1.347, -5.476e-6
1.348, -5.403e-6
1.349, -5.327e-6
1.350, -5.255e-6
1.351, -5.182e-6
1.352, -5.112e-6
1.353, -5.040e-6
1.354, -4.971e-6
1.355, -4.903e-6
1.356, -4.831e-6
1.357, -4.765e-6
1.358, -4.692e-6
1.359, -4.625e-6
1.360, -4.560e-6
1.361, -4.492e-6
1.362, -4.423e-6
1.363, -4.358e-6
1.364, -4.288e-6
1.365, -4.221e-6
1.366, -4.152e-6
1.367, -4.087e-6
1.368, -4.020e-6
1.369, -3.956e-6
1.370, -3.883e-6
1.371, -3.819e-6
1.372, -3.749e-6
1.373, -3.683e-6
1.374, -3.615e-6
1.375, -3.550e-6
1.376, -3.485e-6
1.377, -3.420e-6
1.378, -3.351e-6
1.379, -3.284e-6
1.380, -3.219e-6
1.381, -3.153e-6
1.382, -3.084e-6
1.383, -3.018e-6
1.384, -2.952e-6
1.385, -2.882e-6
1.386, -2.816e-6
1.387, -2.753e-6
1.388, -2.680e-6
1.389, -2.617e-6
1.390, -2.549e-6
1.391, -2.480e-6
1.392, -2.419e-6
1.393, -2.350e-6
1.394, -2.283e-6
1.395, -2.217e-6
1.396, -2.149e-6
1.397, -2.081e-6
1.398, -2.015e-6
1.399, -1.945e-6
1.400, -1.879e-6
1.401, -1.811e-6
1.402, -1.740e-6
1.403, -1.670e-6
1.404, -1.603e-6
1.405, -1.535e-6
1.406, -1.465e-6
1.407, -1.399e-6
1.408, -1.328e-6
1.409, -1.258e-6
1.410, -1.188e-6
1.411, -1.123e-6
1.412, -1.053e-6
1.413, -9.833e-7
1.414, -9.160e-7
1.415, -8.449e-7
1.416, -7.745e-7
1.417, -7.065e-7
1.418, -6.361e-7
1.419, -5.712e-7
1.420, -4.985e-7
1.421, -4.343e-7
1.422, -3.601e-7
1.423, -2.897e-7
1.424, -2.248e-7
1.425, -1.521e-7
1.426, -8.175e-8
1.427, -1.680e-8
1.428, 5.201e-8
1.429, 1.201e-7
1.430, 1.904e-7
1.431, 2.608e-7
1.432, 3.242e-7
1.433, 4.000e-7
1.434, 4.695e-7
1.435, 5.422e-7
1.436, 6.134e-7
1.437, 6.853e-7
1.438, 7.541e-7
1.439, 8.314e-7
1.440, 8.994e-7
1.441, 9.744e-7
1.442, 1.050e-6
1.443, 1.121e-6
1.444, 1.196e-6
1.445, 1.267e-6
1.446, 1.338e-6
1.447, 1.417e-6
1.448, 1.489e-6
1.449, 1.564e-6
1.450, 1.639e-6
1.451, 1.715e-6
1.452, 1.796e-6
1.453, 1.869e-6
1.454, 1.946e-6
1.455, 2.022e-6
1.456, 2.098e-6
1.457, 2.174e-6
1.458, 2.253e-6
1.459, 2.327e-6
1.460, 2.406e-6
1.461, 2.485e-6
1.462, 2.563e-6
1.463, 2.641e-6
1.464, 2.716e-6
1.465, 2.797e-6
1.466, 2.870e-6
1.467, 2.952e-6
1.468, 3.030e-6
1.469, 3.111e-6
1.470, 3.194e-6
1.471, 3.272e-6
1.472, 3.349e-6
1.473, 3.435e-6
1.474, 3.519e-6
1.475, 3.599e-6
1.476, 3.683e-6
1.477, 3.769e-6
1.478, 3.849e-6
1.479, 3.937e-6
1.480, 4.019e-6
1.481, 4.104e-6
1.482, 4.193e-6
1.483, 4.279e-6
1.484, 4.366e-6
1.485, 4.452e-6
1.486, 4.545e-6
1.487, 4.637e-6
1.488, 4.722e-6
1.489, 4.815e-6
1.490, 4.909e-6
1.491, 4.994e-6
1.492, 5.089e-6
1.493, 5.179e-6
1.494, 5.271e-6
1.495, 5.365e-6
1.496, 5.451e-6
1.497, 5.547e-6
1.498, 5.638e-6
1.499, 5.734e-6
1.500, 5.829e-6
1.501, 5.927e-6
1.502, 6.017e-6
1.503, 6.123e-6
1.504, 6.215e-6
1.505, 6.318e-6
1.506, 6.418e-6
1.507, 6.517e-6
1.508, 6.620e-6
1.509, 6.722e-6
1.510, 6.824e-6
1.511, 6.937e-6
1.512, 7.036e-6
1.513, 7.148e-6
1.514, 7.253e-6
1.515, 7.360e-6
1.516, 7.472e-6
1.517, 7.576e-6
1.518, 7.687e-6
1.519, 7.797e-6
1.520, 7.901e-6
1.521, 8.014e-6
1.522, 8.124e-6
1.523, 8.232e-6
1.524, 8.348e-6
1.525, 8.461e-6
1.526, 8.581e-6
1.527, 8.705e-6
1.528, 8.816e-6
1.529, 8.945e-6
1.530, 9.068e-6
1.531, 9.191e-6
1.532, 9.324e-6
1.533, 9.446e-6
1.534, 9.576e-6
1.535, 9.704e-6
1.536, 9.833e-6
1.537, 9.965e-6
1.538, 1.010e-5
1.539, 1.023e-5
1.540, 1.037e-5
1.541, 1.051e-5
1.542, 1.064e-5
1.543, 1.078e-5
1.544, 1.091e-5
1.545, 1.106e-5
1.546, 1.120e-5
1.547, 1.134e-5
1.548, 1.149e-5
1.549, 1.163e-5
1.550, 1.177e-5
1.551, 1.194e-5
1.552, 1.207e-5
1.553, 1.224e-5
1.554, 1.239e-5
1.555, 1.255e-5
1.556, 1.271e-5
1.557, 1.287e-5
1.558, 1.303e-5
1.559, 1.320e-5
1.560, 1.336e-5
1.561, 1.353e-5
1.562, 1.370e-5
1.563, 1.387e-5
1.564, 1.406e-5
1.565, 1.423e-5
1.566, 1.441e-5
1.567, 1.460e-5
1.568, 1.477e-5
1.569, 1.496e-5
1.570, 1.514e-5
1.571, 1.532e-5
1.572, 1.551e-5
1.573, 1.569e-5
1.574, 1.586e-5
1.575, 1.604e-5
1.576, 1.622e-5
1.577, 1.640e-5
1.578, 1.660e-5
1.579, 1.680e-5
1.580, 1.701e-5
1.581, 1.721e-5
1.582, 1.742e-5
1.583, 1.764e-5
1.584, 1.783e-5
1.585, 1.805e-5
1.586, 1.828e-5
1.587, 1.849e-5
1.588, 1.872e-5
1.589, 1.896e-5
1.590, 1.919e-5
1.591, 1.943e-5
1.592, 1.966e-5
1.593, 1.990e-5
1.594, 2.014e-5
1.595, 2.038e-5
1.596, 2.063e-5
1.597, 2.086e-5
1.598, 2.111e-5
1.599, 2.137e-5
1.600, 2.161e-5
1.601, 2.186e-5
1.602, 2.213e-5
1.603, 2.238e-5
1.604, 2.265e-5
1.605, 2.290e-5
1.606, 2.316e-5
1.607, 2.344e-5
1.608, 2.370e-5
1.609, 2.399e-5
1.610, 2.427e-5
1.611, 2.455e-5
1.612, 2.484e-5
1.613, 2.511e-5
1.614, 2.540e-5
1.615, 2.568e-5
1.616, 2.595e-5
1.617, 2.625e-5
1.618, 2.654e-5
1.619, 2.683e-5
1.620, 2.714e-5
1.621, 2.744e-5
1.622, 2.774e-5
1.623, 2.803e-5
1.624, 2.833e-5
1.625, 2.864e-5
1.626, 2.895e-5
1.627, 2.926e-5
1.628, 2.959e-5
1.629, 2.988e-5
1.630, 3.022e-5
1.631, 3.055e-5
1.632, 3.085e-5
1.633, 3.119e-5
1.634, 3.152e-5
1.635, 3.184e-5
1.636, 3.218e-5
1.637, 3.251e-5
1.638, 3.287e-5
1.639, 3.323e-5
1.640, 3.354e-5
1.641, 3.389e-5
1.642, 3.422e-5
1.643, 3.456e-5
1.644, 3.490e-5
1.645, 3.524e-5
1.646, 3.559e-5
1.647, 3.593e-5
1.648, 3.626e-5
1.649, 3.664e-5
1.650, 3.700e-5
1.651, 3.735e-5
1.652, 3.774e-5
1.653, 3.809e-5
1.654, 3.846e-5
1.655, 3.884e-5
1.656, 3.920e-5
1.657, 3.959e-5
1.658, 3.997e-5
1.659, 4.036e-5
1.660, 4.075e-5
1.661, 4.112e-5
1.662, 4.153e-5
1.663, 4.193e-5
1.664, 4.231e-5
1.665, 4.272e-5
1.666, 4.314e-5
1.667, 4.355e-5
1.668, 4.398e-5
1.669, 4.441e-5
1.670, 4.484e-5
1.671, 4.527e-5
1.672, 4.571e-5
1.673, 4.615e-5
1.674, 4.659e-5
1.675, 4.703e-5
1.676, 4.749e-5
1.677, 4.794e-5
1.678, 4.841e-5
1.679, 4.890e-5
1.680, 4.934e-5
1.681, 4.983e-5
1.682, 5.032e-5
1.683, 5.079e-5
1.684, 5.128e-5
1.685, 5.176e-5
1.686, 5.226e-5
1.687, 5.278e-5
1.688, 5.330e-5
1.689, 5.385e-5
1.690, 5.436e-5
1.691, 5.488e-5
1.692, 5.540e-5
1.693, 5.590e-5
1.694, 5.643e-5
1.695, 5.696e-5
1.696, 5.747e-5
1.697, 5.803e-5
1.698, 5.857e-5
1.699, 5.910e-5
1.700, 5.963e-5
1.701, 6.016e-5
1.702, 6.070e-5
1.703, 6.124e-5
1.704, 6.179e-5
1.705, 6.237e-5
1.706, 6.291e-5
1.707, 6.347e-5
1.708, 6.402e-5
1.709, 6.455e-5
1.710, 6.510e-5
1.711, 6.570e-5
1.712, 6.623e-5
1.713, 6.682e-5
1.714, 6.736e-5
1.715, 6.794e-5
1.716, 6.851e-5
1.717, 6.909e-5
1.718, 6.967e-5
1.719, 7.024e-5
1.720, 7.081e-5
1.721, 7.140e-5
1.722, 7.198e-5
1.723, 7.255e-5
1.724, 7.313e-5
1.725, 7.370e-5
1.726, 7.428e-5
1.727, 7.489e-5
1.728, 7.545e-5
1.729, 7.609e-5
1.730, 7.671e-5
1.731, 7.729e-5
1.732, 7.791e-5
1.733, 7.850e-5
1.734, 7.911e-5
1.735, 7.974e-5
1.736, 8.036e-5
1.737, 8.097e-5
1.738, 8.162e-5
1.739, 8.224e-5
1.740, 8.290e-5
1.741, 8.349e-5
1.742, 8.416e-5
1.743, 8.482e-5
1.744, 8.544e-5
1.745, 8.610e-5
1.746, 8.677e-5
1.747, 8.740e-5
1.748, 8.807e-5
1.749, 8.873e-5
1.750, 8.938e-5
1.751, 9.008e-5
1.752, 9.072e-5
1.753, 9.144e-5
1.754, 9.212e-5
1.755, 9.281e-5
1.756, 9.351e-5
1.757, 9.419e-5
1.758, 9.490e-5
1.759, 9.563e-5
1.760, 9.631e-5
1.761, 9.706e-5
1.762, 9.778e-5
1.763, 9.850e-5
1.764, 9.924e-5
1.765, 9.998e-5
1.766, 1.007e-4
1.767, 1.014e-4
1.768, 1.022e-4
1.769, 1.030e-4
1.770, 1.038e-4
1.771, 1.045e-4
1.772, 1.053e-4
1.773, 1.061e-4
1.774, 1.069e-4
1.775, 1.077e-4
1.776, 1.085e-4
1.777, 1.093e-4
1.778, 1.101e-4
1.779, 1.109e-4
1.780, 1.117e-4
1.781, 1.126e-4
1.782, 1.134e-4
1.783, 1.142e-4
1.784, 1.150e-4
1.785, 1.159e-4
1.786, 1.168e-4
1.787, 1.176e-4
1.788, 1.185e-4
1.789, 1.194e-4
1.790, 1.203e-4
1.791, 1.212e-4
1.792, 1.221e-4
1.793, 1.230e-4
1.794, 1.239e-4
1.795, 1.248e-4
1.796, 1.258e-4
1.797, 1.267e-4
1.798, 1.277e-4
1.799, 1.286e-4
1.800, 1.296e-4
1.801, 1.306e-4
1.802, 1.316e-4
1.803, 1.325e-4
1.804, 1.335e-4
1.805, 1.345e-4
1.806, 1.355e-4
1.807, 1.365e-4
1.808, 1.375e-4
1.809, 1.385e-4
1.810, 1.396e-4
1.811, 1.406e-4
1.812, 1.417e-4
1.813, 1.427e-4
1.814, 1.438e-4
1.815, 1.448e-4
1.816, 1.459e-4
1.817, 1.470e-4
1.818, 1.480e-4
1.819, 1.491e-4
1.820, 1.502e-4
1.821, 1.513e-4
1.822, 1.524e-4
1.823, 1.536e-4
1.824, 1.547e-4
1.825, 1.558e-4
1.826, 1.570e-4
1.827, 1.581e-4
1.828, 1.593e-4
1.829, 1.605e-4
1.830, 1.617e-4
1.831, 1.628e-4
1.832, 1.640e-4
1.833, 1.653e-4
1.834, 1.665e-4
1.835, 1.677e-4
1.836, 1.689e-4
1.837, 1.700e-4
1.838, 1.712e-4
1.839, 1.725e-4
1.840, 1.737e-4
1.841, 1.750e-4
1.842, 1.763e-4
1.843, 1.776e-4
1.844, 1.789e-4
1.845, 1.802e-4
1.846, 1.816e-4
1.847, 1.828e-4
1.848, 1.842e-4
1.849, 1.855e-4
1.850, 1.869e-4
1.851, 1.882e-4
1.852, 1.896e-4
1.853, 1.909e-4
1.854, 1.923e-4
1.855, 1.936e-4
1.856, 1.949e-4