File: database/experiments/MU/xrd/1102/parallel/liftfsi/xrd/25.TXT
Sample
Comments
Filename	C:\Data\西出研\梅木\20211102オペ\LiFTFSI_01_0001_0029-1_C_2θ.raw
Goniometer	SmartLab(In-plane)
Attachment	標準Zステージ
Monochromater	None
X	0
Y	0
Z	0.00908
ScanningMode	2Theta
ScanningType	Continuos Scanning
X-Ray	40kV/30mA
入射スリット	0.300mm
受光スリット1	20.000mm
受光スリット2	20.000mm
None
Start	5
Stop	60
Step	0.02
Speed	21.6746
Theta	0
5	3883.36
5.04	3269.25
5.08	3666.62
5.12	2980.25
5.16	3666.62
5.2	3251.19
5.24	3738.86
5.28	3197
5.32	3522.12
5.36	3359.56
5.4	3413.75
5.44	3630.49
5.48	3197
5.52	3377.62
5.56	3359.56
5.6	3233.12
5.64	3070.56
5.68	3070.56
5.72	3558.24
5.76	3305.37
5.8	3594.37
5.84	3377.62
5.88	3251.19
5.92	3540.18
5.96	3106.69
6	3377.62
6.04	2980.25
6.08	3395.68
6.12	2835.76
6.16	3142.81
6.2	3287.31
6.24	3215.06
6.28	3467.93
6.32	3124.75
6.36	3178.94
6.4	3016.38
6.44	3070.56
6.48	3088.63
6.52	3467.93
6.56	3269.25
6.6	3720.8
6.64	2980.25
6.68	2980.25
6.72	3287.31
6.76	2709.32
6.8	3630.49
6.84	2980.25
6.88	3269.25
6.92	2908.01
6.96	3124.75
7	2926.07
7.04	3215.06
7.08	3052.5
7.12	3088.63
7.16	3233.12
7.2	3341.5
7.24	3413.75
7.28	3233.12
7.32	3251.19
7.36	3124.75
7.4	2998.32
7.44	3413.75
7.48	2962.19
7.52	3034.44
7.56	3124.75
7.6	3540.18
7.64	3034.44
7.68	2908.01
7.72	3594.37
7.76	2727.38
7.8	3088.63
7.84	3142.81
7.88	3052.5
7.92	3124.75
7.96	3215.06
8	2980.25
8.04	2998.32
8.08	3160.88
8.12	3106.69
8.16	2835.76
8.2	2980.25
8.24	2637.07
8.28	2926.07
8.32	3413.75
8.36	2853.82
8.4	2745.45
8.44	2908.01
8.48	3124.75
8.52	2835.76
8.56	3467.93
8.6	3558.24
8.64	2546.76
8.68	2962.19
8.72	2637.07
8.76	3504.06
8.8	2871.88
8.84	3034.44
8.88	2908.01
8.92	2817.69
8.96	3034.44
9	3197
9.04	2817.69
9.08	3467.93
9.12	2691.26
9.16	3233.12
9.2	2944.13
9.24	3070.56
9.28	3251.19
9.32	3305.37
9.36	3485.99
9.4	2926.07
9.44	2944.13
9.48	3106.69
9.52	2600.95
9.56	3088.63
9.6	2962.19
9.64	2871.88
9.68	2709.32
9.72	2781.57
9.76	3034.44
9.8	2817.69
9.84	2763.51
9.88	2926.07
9.92	2546.76
9.96	2727.38
10	3142.81
10.04	2727.38
10.08	3070.56
10.12	2799.63
10.16	2763.51
10.2	2257.77
10.24	2908.01
10.28	2619.01
10.32	2781.57
10.36	2853.82
10.4	2600.95
10.44	3088.63
10.48	2763.51
10.52	2817.69
10.56	2853.82
10.6	2962.19
10.64	2637.07
10.68	3142.81
10.72	2600.95
10.76	2691.26
10.8	3160.88
10.84	2817.69
10.88	2709.32
10.92	2799.63
10.96	2131.33
11	2438.39
11.04	2619.01
11.08	2546.76
11.12	2980.25
11.16	3215.06
11.2	2889.94
11.24	3052.5
11.28	2799.63
11.32	2492.58
11.36	2673.2
11.4	2853.82
11.44	2926.07
11.48	2691.26
11.52	2871.88
11.56	3070.56
11.6	2745.45
11.64	2691.26
11.68	2763.51
11.72	2908.01
11.76	2438.39
11.8	2871.88
11.84	2799.63
11.88	2637.07
11.92	2727.38
11.96	2655.14
12	2619.01
12.04	2799.63
12.08	2438.39
12.12	2582.89
12.16	2709.32
12.2	2799.63
12.24	2546.76
12.28	2366.14
12.32	2637.07
12.36	2962.19
12.4	3016.38
12.44	2600.95
12.48	3142.81
12.52	2781.57
12.56	3738.86
12.6	3485.99
12.64	3016.38
12.68	2456.45
12.72	3106.69
12.76	2564.82
12.8	2221.64
12.84	2745.45
12.88	2673.2
12.92	2600.95
12.96	2980.25
13	2781.57
13.04	2474.51
13.08	2889.94
13.12	2781.57
13.16	2655.14
13.2	2528.7
13.24	2492.58
13.28	2438.39
13.32	2456.45
13.36	2239.71
13.4	2311.95
13.44	2600.95
13.48	2691.26
13.52	2799.63
13.56	2456.45
13.6	2655.14
13.64	2203.58
13.68	2510.64
13.72	2944.13
13.76	2709.32
13.8	2402.27
13.84	2781.57
13.88	2420.33
13.92	2420.33
13.96	2239.71
14	2366.14
14.04	2763.51
14.08	2510.64
14.12	1968.77
14.16	2330.02
14.2	2384.2
14.24	2420.33
14.28	3160.88
14.32	2113.27
14.36	2564.82
14.4	2348.08
14.44	2438.39
14.48	2456.45
14.52	2203.58
14.56	2817.69
14.6	2474.51
14.64	2582.89
14.68	2474.51
14.72	2492.58
14.76	2456.45
14.8	2095.21
14.84	2456.45
14.88	2239.71
14.92	2438.39
14.96	2438.39
15	2564.82
15.04	2727.38
15.08	2691.26
15.12	3070.56
15.16	2980.25
15.2	2384.2
15.24	2492.58
15.28	2293.89
15.32	2330.02
15.36	2492.58
15.4	2691.26
15.44	2330.02
15.48	2384.2
15.52	2185.52
15.56	2456.45
15.6	2384.2
15.64	2510.64
15.68	2492.58
15.72	2528.7
15.76	2745.45
15.8	1860.4
15.84	2582.89
15.88	2185.52
15.92	2275.83
15.96	2582.89
16	2149.4
16.04	3251.19
16.08	3829.18
16.12	4118.17
16.16	3883.36
16.2	3070.56
16.24	2619.01
16.28	2239.71
16.32	2095.21
16.36	2095.21
16.4	2203.58
16.44	1914.59
16.48	2546.76
16.52	1986.84
16.56	2203.58
16.6	2420.33
16.64	1896.53
16.68	2384.2
16.72	2293.89
16.76	2095.21
16.8	2293.89
16.84	2366.14
16.88	2113.27
16.92	1625.59
16.96	2330.02
17	1986.84
17.04	2619.01
17.08	1896.53
17.12	2095.21
17.16	2203.58
17.2	1968.77
17.24	2456.45
17.28	2366.14
17.32	2492.58
17.36	2041.02
17.4	2059.08
17.44	1842.34
17.48	2311.95
17.52	2185.52
17.56	1788.15
17.6	2113.27
17.64	1914.59
17.68	2293.89
17.72	2311.95
17.76	2402.27
17.8	2185.52
17.84	2257.77
17.88	2582.89
17.92	3052.5
17.96	3756.93
18	5996.63
18.04	7405.48
18.08	6719.12
18.12	4298.79
18.16	2799.63
18.2	2221.64
18.24	2059.08
18.28	1986.84
18.32	1932.65
18.36	2420.33
18.4	1950.71
18.44	2221.64
18.48	2275.83
18.52	2926.07
18.56	2853.82
18.6	4967.09
18.64	6159.19
18.68	5436.71
18.72	3793.05
18.76	2637.07
18.8	2185.52
18.84	2492.58
18.88	2022.96
18.92	1878.46
18.96	1752.03
19	2004.9
19.04	1770.09
19.08	2348.08
19.12	2059.08
19.16	2293.89
19.2	2908.01
19.24	3106.69
19.28	4623.91
19.32	5599.27
19.36	5256.08
19.4	3883.36
19.44	2835.76
19.48	2095.21
19.52	1824.28
19.56	1878.46
19.6	2167.46
19.64	2311.95
19.68	1986.84
19.72	1788.15
19.76	1372.72
19.8	1733.97
19.84	2059.08
19.88	2113.27
19.92	1986.84
19.96	1842.34
20	1860.4
20.04	2167.46
20.08	2293.89
20.12	2853.82
20.16	2438.39
20.2	2528.7
20.24	2384.2
20.28	1715.9
20.32	1643.66
20.36	1788.15
20.4	1914.59
20.44	1806.21
20.48	1932.65
20.52	1697.84
20.56	1770.09
20.6	1752.03
20.64	1625.59
20.68	1661.72
20.72	1824.28
20.76	2022.96
20.8	1824.28
20.84	1842.34
20.88	2167.46
20.92	2095.21
20.96	2257.77
21	2926.07
21.04	4208.48
21.08	6303.69
21.12	7513.85
21.16	7224.86
21.2	4063.98
21.24	2402.27
21.28	1535.28
21.32	1860.4
21.36	1752.03
21.4	1697.84
21.44	1697.84
21.48	1770.09
21.52	1842.34
21.56	1553.34
21.6	1643.66
21.64	1697.84
21.68	1535.28
21.72	1553.34
21.76	2077.15
21.8	2257.77
21.84	2384.2
21.88	1824.28
21.92	1679.78
21.96	1571.41
22	2004.9
22.04	1607.53
22.08	1788.15
22.12	1697.84
22.16	1426.91
22.2	2095.21
22.24	1571.41
22.28	1896.53
22.32	1679.78
22.36	1372.72
22.4	1715.9
22.44	1661.72
22.48	1914.59
22.52	1535.28
22.56	1372.72
22.6	1715.9
22.64	1625.59
22.68	1788.15
22.72	1914.59
22.76	1679.78
22.8	1842.34
22.84	1697.84
22.88	1517.22
22.92	1679.78
22.96	1517.22
23	1661.72
23.04	1481.1
23.08	1661.72
23.12	1463.03
23.16	1932.65
23.2	1770.09
23.24	2095.21
23.28	1968.77
23.32	1914.59
23.36	1842.34
23.4	2113.27
23.44	2077.15
23.48	2041.02
23.52	2041.02
23.56	1752.03
23.6	1155.98
23.64	1625.59
23.68	1408.85
23.72	1643.66
23.76	1535.28
23.8	1679.78
23.84	1101.79
23.88	1300.47
23.92	1264.35
23.96	1499.16
24	1444.97
24.04	1426.91
24.08	1174.04
24.12	1517.22
24.16	1318.54
24.2	1589.47
24.24	1517.22
24.28	1318.54
24.32	1499.16
24.36	1535.28
24.4	1318.54
24.44	1788.15
24.48	1499.16
24.52	1571.41
24.56	1589.47
24.6	1264.35
24.64	1318.54
24.68	1210.16
24.72	1282.41
24.76	1372.72
24.8	1246.29
24.84	1210.16
24.88	1174.04
24.92	1174.04
24.96	1336.6
25	1264.35
25.04	1210.16
25.08	1336.6
25.12	1300.47
25.16	1770.09
25.2	1426.91
25.24	1661.72
25.28	1896.53
25.32	1860.4
25.36	1661.72
25.4	2185.52
25.44	2420.33
25.48	2727.38
25.52	2221.64
25.56	1733.97
25.6	1986.84
25.64	2944.13
25.68	3504.06
25.72	5906.32
25.76	6737.18
25.8	6177.25
25.84	4407.16
25.88	2962.19
25.92	1643.66
25.96	1589.47
26	1264.35
26.04	1282.41
26.08	1282.41
26.12	1282.41
26.16	1192.1
26.2	1390.79
26.24	1679.78
26.28	1770.09
26.32	2167.46
26.36	3269.25
26.4	3178.94
26.44	2691.26
26.48	1968.77
26.52	1210.16
26.56	1228.23
26.6	1463.03
26.64	1444.97
26.68	1553.34
26.72	1517.22
26.76	1733.97
26.8	1336.6
26.84	957.294
26.88	1137.92
26.92	1119.85
26.96	1210.16
27	1390.79
27.04	1228.23
27.08	1065.67
27.12	1336.6
27.16	1137.92
27.2	1210.16
27.24	993.418
27.28	975.356
27.32	1174.04
27.36	1426.91
27.4	1300.47
27.44	1788.15
27.48	2799.63
27.52	4190.42
27.56	5147.71
27.6	6791.37
27.64	4280.73
27.68	3178.94
27.72	2113.27
27.76	1535.28
27.8	1192.1
27.84	794.734
27.88	1444.97
27.92	1372.72
27.96	1300.47
28	1174.04
28.04	1210.16
28.08	1228.23
28.12	1354.66
28.16	1390.79
28.2	1210.16
28.24	1228.23
28.28	866.983
28.32	975.356
28.36	975.356
28.4	993.418
28.44	975.356
28.48	830.859
28.52	1192.1
28.56	1083.73
28.6	939.232
28.64	1101.79
28.68	866.983
28.72	975.356
28.76	993.418
28.8	1065.67
28.84	1119.85
28.88	921.169
28.92	1101.79
28.96	1011.48
29	1029.54
29.04	1101.79
29.08	885.045
29.12	1101.79
29.16	740.548
29.2	885.045
29.24	1083.73
29.28	722.486
29.32	1011.48
29.36	939.232
29.4	957.294
29.44	848.921
29.48	975.356
29.52	885.045
29.56	1065.67
29.6	848.921
29.64	1174.04
29.68	1083.73
29.72	812.797
29.76	975.356
29.8	939.232
29.84	1029.54
29.88	1047.6
29.92	848.921
29.96	885.045
30	957.294
30.04	1137.92
30.08	1083.73
30.12	1535.28
30.16	1210.16
30.2	1192.1
30.24	1083.73
30.28	1047.6
30.32	939.232
30.36	794.734
30.4	848.921
30.44	993.418
30.48	1119.85
30.52	1137.92
30.56	1354.66
30.6	1300.47
30.64	1517.22
30.68	1174.04
30.72	1083.73
30.76	722.486
30.8	704.424
30.84	848.921
30.88	903.107
30.92	903.107
30.96	1119.85
31	1065.67
31.04	885.045
31.08	903.107
31.12	921.169
31.16	848.921
31.2	848.921
31.24	885.045
31.28	848.921
31.32	993.418
31.36	668.299
31.4	885.045
31.44	921.169
31.48	1192.1
31.52	1155.98
31.56	1137.92
31.6	1047.6
31.64	830.859
31.68	903.107
31.72	722.486
31.76	794.734
31.8	794.734
31.84	650.237
31.88	722.486
31.92	921.169
31.96	758.61
32	903.107
32.04	776.672
32.08	650.237
32.12	686.362
32.16	686.362
32.2	776.672
32.24	704.424
32.28	668.299
32.32	758.61
32.36	848.921
32.4	722.486
32.44	975.356
32.48	1336.6
32.52	1589.47
32.56	1318.54
32.6	1083.73
32.64	957.294
32.68	848.921
32.72	704.424
32.76	650.237
32.8	686.362
32.84	776.672
32.88	1228.23
32.92	1354.66
32.96	1824.28
33	2004.9
33.04	2311.95
33.08	1842.34
33.12	1228.23
33.16	1101.79
33.2	1264.35
33.24	1210.16
33.28	957.294
33.32	885.045
33.36	903.107
33.4	921.169
33.44	596.051
33.48	740.548
33.52	686.362
33.56	740.548
33.6	866.983
33.64	596.051
33.68	776.672
33.72	559.927
33.76	487.678
33.8	776.672
33.84	523.802
33.88	704.424
33.92	794.734
33.96	885.045
34	1101.79
34.04	848.921
34.08	921.169
34.12	686.362
34.16	1065.67
34.2	776.672
34.24	1065.67
34.28	776.672
34.32	650.237
34.36	668.299
34.4	722.486
34.44	758.61
34.48	668.299
34.52	812.797
34.56	686.362
34.6	596.051
34.64	668.299
34.68	939.232
34.72	559.927
34.76	596.051
34.8	722.486
34.84	866.983
34.88	794.734
34.92	848.921
34.96	668.299
35	541.864
35.04	596.051
35.08	939.232
35.12	848.921
35.16	866.983
35.2	903.107
35.24	848.921
35.28	632.175
35.32	596.051
35.36	686.362
35.4	668.299
35.44	866.983
35.48	577.989
35.52	668.299
35.56	596.051
35.6	577.989
35.64	559.927
35.68	541.864
35.72	848.921
35.76	577.989
35.8	415.429
35.84	523.802
35.88	686.362
35.92	559.927
35.96	632.175
36	596.051
36.04	885.045
36.08	758.61
36.12	632.175
36.16	722.486
36.2	758.61
36.24	632.175
36.28	487.678
36.32	577.989
36.36	361.243
36.4	722.486
36.44	523.802
36.48	668.299
36.52	668.299
36.56	632.175
36.6	523.802
36.64	596.051
36.68	866.983
36.72	668.299
36.76	505.74
36.8	939.232
36.84	1390.79
36.88	1444.97
36.92	1553.34
36.96	1174.04
37	957.294
37.04	776.672
37.08	830.859
37.12	668.299
37.16	577.989
37.2	939.232
37.24	993.418
37.28	1318.54
37.32	1499.16
37.36	1625.59
37.4	1174.04
37.44	957.294
37.48	957.294
37.52	650.237
37.56	523.802
37.6	614.113
37.64	776.672
37.68	541.864
37.72	433.492
37.76	722.486
37.8	632.175
37.84	740.548
37.88	740.548
37.92	866.983
37.96	830.859
38	975.356
38.04	1029.54
38.08	758.61
38.12	722.486
38.16	632.175
38.2	668.299
38.24	885.045
38.28	1119.85
38.32	1174.04
38.36	1155.98
38.4	1011.48
38.44	686.362
38.48	577.989
38.52	523.802
38.56	505.74
38.6	559.927
38.64	650.237
38.68	361.243
38.72	325.119
38.76	361.243
38.8	596.051
38.84	614.113
38.88	686.362
38.92	866.983
38.96	650.237
39	577.989
39.04	722.486
39.08	740.548
39.12	758.61
39.16	704.424
39.2	1083.73
39.24	957.294
39.28	1210.16
39.32	2022.96
39.36	2059.08
39.4	1878.46
39.44	1661.72
39.48	1192.1
39.52	903.107
39.56	848.921
39.6	686.362
39.64	704.424
39.68	397.367
39.72	541.864
39.76	541.864
39.8	559.927
39.84	541.864
39.88	632.175
39.92	451.554
39.96	415.429
40	577.989
40.04	596.051
40.08	596.051
40.12	794.734
40.16	704.424
40.2	596.051
40.24	614.113
40.28	541.864
40.32	722.486
40.36	343.181
40.4	469.616
40.44	397.367
40.48	614.113
40.52	577.989
40.56	343.181
40.6	361.243
40.64	722.486
40.68	505.74
40.72	379.305
40.76	361.243
40.8	632.175
40.84	596.051
40.88	577.989
40.92	632.175
40.96	505.74
41	487.678
41.04	577.989
41.08	451.554
41.12	379.305
41.16	415.429
41.2	614.113
41.24	541.864
41.28	415.429
41.32	397.367
41.36	361.243
41.4	415.429
41.44	379.305
41.48	541.864
41.52	415.429
41.56	505.74
41.6	632.175
41.64	559.927
41.68	740.548
41.72	866.983
41.76	1083.73
41.8	1408.85
41.84	993.418
41.88	686.362
41.92	632.175
41.96	740.548
42	541.864
42.04	632.175
42.08	577.989
42.12	451.554
42.16	722.486
42.2	469.616
42.24	596.051
42.28	451.554
42.32	487.678
42.36	541.864
42.4	415.429
42.44	433.492
42.48	596.051
42.52	415.429
42.56	523.802
42.6	541.864
42.64	487.678
42.68	469.616
42.72	343.181
42.76	379.305
42.8	325.119
42.84	451.554
42.88	523.802
42.92	632.175
42.96	740.548
43	921.169
43.04	722.486
43.08	776.672
43.12	668.299
43.16	523.802
43.2	632.175
43.24	487.678
43.28	487.678
43.32	559.927
43.36	451.554
43.4	686.362
43.44	505.74
43.48	541.864
43.52	325.119
43.56	270.932
43.6	433.492
43.64	433.492
43.68	433.492
43.72	415.429
43.76	325.119
43.8	433.492
43.84	505.74
43.88	523.802
43.92	415.429
43.96	451.554
44	415.429
44.04	523.802
44.08	505.74
44.12	361.243
44.16	469.616
44.2	614.113
44.24	451.554
44.28	307.056
44.32	361.243
44.36	451.554
44.4	469.616
44.44	704.424
44.48	469.616
44.52	559.927
44.56	596.051
44.6	523.802
44.64	343.181
44.68	379.305
44.72	379.305
44.76	415.429
44.8	559.927
44.84	469.616
44.88	433.492
44.92	559.927
44.96	451.554
45	397.367
45.04	433.492
45.08	487.678
45.12	596.051
45.16	614.113
45.2	379.305
45.24	577.989
45.28	234.808
45.32	469.616
45.36	288.994
45.4	397.367
45.44	343.181
45.48	361.243
45.52	379.305
45.56	614.113
45.6	469.616
45.64	451.554
45.68	451.554
45.72	451.554
45.76	307.056
45.8	379.305
45.84	361.243
45.88	433.492
45.92	343.181
45.96	397.367
46	487.678
46.04	343.181
46.08	415.429
46.12	397.367
46.16	415.429
46.2	379.305
46.24	361.243
46.28	343.181
46.32	325.119
46.36	288.994
46.4	325.119
46.44	487.678
46.48	523.802
46.52	668.299
46.56	812.797
46.6	559.927
46.64	433.492
46.68	397.367
46.72	397.367
46.76	325.119
46.8	325.119
46.84	379.305
46.88	307.056
46.92	451.554
46.96	397.367
47	325.119
47.04	397.367
47.08	397.367
47.12	343.181
47.16	361.243
47.2	379.305
47.24	343.181
47.28	541.864
47.32	469.616
47.36	541.864
47.4	469.616
47.44	415.429
47.48	415.429
47.52	343.181
47.56	523.802
47.6	469.616
47.64	433.492
47.68	270.932
47.72	397.367
47.76	541.864
47.8	577.989
47.84	451.554
47.88	397.367
47.92	722.486
47.96	577.989
48	614.113
48.04	614.113
48.08	523.802
48.12	397.367
48.16	288.994
48.2	397.367
48.24	343.181
48.28	361.243
48.32	325.119
48.36	307.056
48.4	433.492
48.44	379.305
48.48	270.932
48.52	343.181
48.56	343.181
48.6	397.367
48.64	487.678
48.68	505.74
48.72	415.429
48.76	397.367
48.8	433.492
48.84	361.243
48.88	252.87
48.92	397.367
48.96	252.87
49	433.492
49.04	433.492
49.08	270.932
49.12	307.056
49.16	343.181
49.2	325.119
49.24	361.243
49.28	307.056
49.32	523.802
49.36	397.367
49.4	397.367
49.44	288.994
49.48	180.621
49.52	270.932
49.56	307.056
49.6	379.305
49.64	216.746
49.68	288.994
49.72	216.746
49.76	270.932
49.8	361.243
49.84	252.87
49.88	415.429
49.92	379.305
49.96	596.051
50	487.678
50.04	469.616
50.08	415.429
50.12	379.305
50.16	451.554
50.2	397.367
50.24	469.616
50.28	343.181
50.32	252.87
50.36	469.616
50.4	252.87
50.44	361.243
50.48	343.181
50.52	397.367
50.56	234.808
50.6	433.492
50.64	361.243
50.68	325.119
50.72	270.932
50.76	288.994
50.8	270.932
50.84	397.367
50.88	487.678
50.92	252.87
50.96	541.864
51	361.243
51.04	523.802
51.08	451.554
51.12	361.243
51.16	596.051
51.2	469.616
51.24	397.367
51.28	343.181
51.32	343.181
51.36	234.808
51.4	216.746
51.44	144.497
51.48	252.87
51.52	252.87
51.56	288.994
51.6	379.305
51.64	288.994
51.68	361.243
51.72	379.305
51.76	252.87
51.8	270.932
51.84	307.056
51.88	288.994
51.92	397.367
51.96	451.554
52	541.864
52.04	415.429
52.08	325.119
52.12	541.864
52.16	379.305
52.2	433.492
52.24	505.74
52.28	614.113
52.32	487.678
52.36	451.554
52.4	433.492
52.44	325.119
52.48	325.119
52.52	288.994
52.56	270.932
52.6	198.684
52.64	325.119
52.68	252.87
52.72	216.746
52.76	379.305
52.8	270.932
52.84	325.119
52.88	433.492
52.92	505.74
52.96	343.181
53	469.616
53.04	541.864
53.08	487.678
53.12	343.181
53.16	433.492
53.2	487.678
53.24	433.492
53.28	469.616
53.32	252.87
53.36	325.119
53.4	198.684
53.44	216.746
53.48	505.74
53.52	451.554
53.56	252.87
53.6	487.678
53.64	415.429
53.68	270.932
53.72	397.367
53.76	415.429
53.8	415.429
53.84	270.932
53.88	397.367
53.92	487.678
53.96	343.181
54	216.746
54.04	307.056
54.08	270.932
54.12	325.119
54.16	252.87
54.2	252.87
54.24	361.243
54.28	343.181
54.32	343.181
54.36	288.994
54.4	343.181
54.44	325.119
54.48	397.367
54.52	379.305
54.56	379.305
54.6	361.243
54.64	541.864
54.68	541.864
54.72	415.429
54.76	632.175
54.8	1047.6
54.84	632.175
54.88	451.554
54.92	523.802
54.96	686.362
55	397.367
55.04	343.181
55.08	343.181
55.12	433.492
55.16	415.429
55.2	307.056
55.24	325.119
55.28	433.492
55.32	433.492
55.36	198.684
55.4	234.808
55.44	361.243
55.48	252.87
55.52	288.994
55.56	216.746
55.6	469.616
55.64	270.932
55.68	144.497
55.72	325.119
55.76	180.621
55.8	162.559
55.84	270.932
55.88	307.056
55.92	379.305
55.96	343.181
56	343.181
56.04	361.243
56.08	270.932
56.12	451.554
56.16	415.429
56.2	415.429
56.24	541.864
56.28	433.492
56.32	270.932
56.36	343.181
56.4	343.181
56.44	180.621
56.48	270.932
56.52	397.367
56.56	325.119
56.6	415.429
56.64	325.119
56.68	252.87
56.72	288.994
56.76	234.808
56.8	307.056
56.84	270.932
56.88	325.119
56.92	397.367
56.96	343.181
57	415.429
57.04	397.367
57.08	288.994
57.12	288.994
57.16	288.994
57.2	270.932
57.24	307.056
57.28	252.87
57.32	397.367
57.36	325.119
57.4	216.746
57.44	234.808
57.48	343.181
57.52	325.119
57.56	198.684
57.6	252.87
57.64	343.181
57.68	252.87
57.72	252.87
57.76	433.492
57.8	361.243
57.84	288.994
57.88	307.056
57.92	343.181
57.96	379.305
58	288.994
58.04	307.056
58.08	307.056
58.12	433.492
58.16	307.056
58.2	252.87
58.24	252.87
58.28	451.554
58.32	216.746
58.36	252.87
58.4	288.994
58.44	234.808
58.48	325.119
58.52	216.746
58.56	361.243
58.6	415.429
58.64	325.119
58.68	307.056
58.72	343.181
58.76	162.559
58.8	325.119
58.84	379.305
58.88	307.056
58.92	433.492
58.96	270.932
59	270.932
59.04	288.994
59.08	288.994
59.12	270.932
59.16	270.932
59.2	343.181
59.24	216.746
59.28	216.746
59.32	307.056
59.36	361.243
59.4	343.181
59.44	379.305
59.48	198.684
59.52	216.746
59.56	180.621
59.6	270.932
59.64	288.994
59.68	397.367
59.72	252.87
59.76	307.056
59.8	451.554
59.84	379.305
59.88	451.554
59.92	379.305
59.96	415.429
60	270.932