File: database/experiments/MU/xrd/1102/parallel/1018/xrd/100.TXT
Sample
Comments
Filename	C:\Data\西出研\梅木\20211102オペ\LiFTFSI30wt_04_0004_0099-1_C_2θ.raw
Goniometer	SmartLab(In-plane)
Attachment	標準Zステージ
Monochromater	None
X	0
Y	0
Z	0.01652
ScanningMode	2Theta
ScanningType	Continuos Scanning
X-Ray	40kV/30mA
入射スリット	0.300mm
受光スリット1	20.000mm
受光スリット2	20.000mm
None
Start	5
Stop	60
Step	0.02
Speed	21.6746
Theta	0
5	5743.76
5.04	5328.33
5.08	5346.4
5.12	5743.76
5.16	5563.14
5.2	5599.27
5.24	5635.39
5.28	5527.02
5.32	5274.15
5.36	5725.7
5.4	6159.19
5.44	5779.89
5.48	5707.64
5.52	5996.63
5.56	5454.77
5.6	5490.89
5.64	5201.9
5.68	5924.38
5.72	5274.15
5.76	5545.08
5.8	5093.53
5.84	5454.77
5.88	4930.97
5.92	5436.71
5.96	5075.46
6	5328.33
6.04	5057.4
6.08	5563.14
6.12	5653.45
6.16	5003.21
6.2	5238.02
6.24	5075.46
6.28	4840.66
6.32	5111.59
6.36	5545.08
6.4	5183.84
6.44	5256.08
6.48	5400.58
6.52	5219.96
6.56	5725.7
6.6	5400.58
6.64	5364.46
6.68	5183.84
6.72	4840.66
6.76	5238.02
6.8	4461.35
6.84	5490.89
6.88	4804.53
6.92	5129.65
6.96	5725.7
7	5238.02
7.04	4858.72
7.08	4352.98
7.12	5039.34
7.16	5256.08
7.2	4714.22
7.24	4949.03
7.28	5021.28
7.32	5129.65
7.36	5238.02
7.4	4985.15
7.44	5093.53
7.48	4876.78
7.52	4840.66
7.56	5635.39
7.6	5563.14
7.64	5093.53
7.68	5039.34
7.72	4678.1
7.76	5292.21
7.8	5003.21
7.84	4660.03
7.88	4858.72
7.92	5057.4
7.96	4696.16
8	4660.03
8.04	4678.1
8.08	4515.54
8.12	5545.08
8.16	4930.97
8.2	4840.66
8.24	4985.15
8.28	4461.35
8.32	4930.97
8.36	4587.79
8.4	5165.77
8.44	4714.22
8.48	4443.29
8.52	4641.97
8.56	4678.1
8.6	5219.96
8.64	4660.03
8.68	5147.71
8.72	5147.71
8.76	4912.9
8.8	4930.97
8.84	4804.53
8.88	4949.03
8.92	4461.35
8.96	4786.47
9	4967.09
9.04	4858.72
9.08	4569.72
9.12	5003.21
9.16	4858.72
9.2	4551.66
9.24	4352.98
9.28	4587.79
9.32	4894.84
9.36	4876.78
9.4	4750.34
9.44	4515.54
9.48	4732.28
9.52	4732.28
9.56	4840.66
9.6	4515.54
9.64	4461.35
9.68	4641.97
9.72	4985.15
9.76	4660.03
9.8	4045.92
9.84	4840.66
9.88	4190.42
9.92	3793.05
9.96	4352.98
10	4172.36
10.04	4208.48
10.08	4660.03
10.12	4660.03
10.16	4479.41
10.2	4696.16
10.24	4551.66
10.28	4244.6
10.32	4678.1
10.36	4334.92
10.4	4750.34
10.44	4714.22
10.48	4226.54
10.52	4660.03
10.56	4316.85
10.6	4750.34
10.64	4316.85
10.68	4750.34
10.72	4407.16
10.76	4443.29
10.8	4316.85
10.84	4334.92
10.88	4172.36
10.92	4208.48
10.96	4714.22
11	4154.29
11.04	4660.03
11.08	4551.66
11.12	4587.79
11.16	4858.72
11.2	4840.66
11.24	4660.03
11.28	4786.47
11.32	4244.6
11.36	4497.47
11.4	4244.6
11.44	4190.42
11.48	5039.34
11.52	4551.66
11.56	4298.79
11.6	3901.42
11.64	4190.42
11.68	4641.97
11.72	4930.97
11.76	4786.47
11.8	4425.23
11.84	5382.52
11.88	4533.6
11.92	4587.79
11.96	4533.6
12	4804.53
12.04	4515.54
12.08	4551.66
12.12	4334.92
12.16	4316.85
12.2	4533.6
12.24	4497.47
12.28	4244.6
12.32	4714.22
12.36	5021.28
12.4	4732.28
12.44	4334.92
12.48	4768.41
12.52	4587.79
12.56	4389.1
12.6	4118.17
12.64	4876.78
12.68	4172.36
12.72	4226.54
12.76	4732.28
12.8	4605.85
12.84	4569.72
12.88	4371.04
12.92	4479.41
12.96	4714.22
13	4876.78
13.04	4714.22
13.08	4696.16
13.12	4894.84
13.16	4208.48
13.2	4678.1
13.24	4822.59
13.28	4425.23
13.32	4316.85
13.36	4641.97
13.4	4172.36
13.44	4407.16
13.48	4497.47
13.52	4262.67
13.56	4100.11
13.6	4334.92
13.64	4461.35
13.68	4262.67
13.72	4136.23
13.76	4551.66
13.8	4443.29
13.84	4587.79
13.88	4443.29
13.92	4551.66
13.96	4316.85
14	4660.03
14.04	4389.1
14.08	4660.03
14.12	4732.28
14.16	3811.11
14.2	4352.98
14.24	4118.17
14.28	4605.85
14.32	4443.29
14.36	4389.1
14.4	4027.86
14.44	3991.73
14.48	4208.48
14.52	4443.29
14.56	4443.29
14.6	4154.29
14.64	4009.8
14.68	4515.54
14.72	4732.28
14.76	4063.98
14.8	4262.67
14.84	4750.34
14.88	4027.86
14.92	4244.6
14.96	4118.17
15	4840.66
15.04	4280.73
15.08	4298.79
15.12	4226.54
15.16	4371.04
15.2	4696.16
15.24	4244.6
15.28	4605.85
15.32	4587.79
15.36	4425.23
15.4	4352.98
15.44	4389.1
15.48	4118.17
15.52	4371.04
15.56	4425.23
15.6	4352.98
15.64	4443.29
15.68	4533.6
15.72	4027.86
15.76	4425.23
15.8	4118.17
15.84	4118.17
15.88	4443.29
15.92	4967.09
15.96	4154.29
16	4407.16
16.04	4280.73
16.08	4533.6
16.12	4154.29
16.16	4027.86
16.2	5364.46
16.24	4136.23
16.28	4605.85
16.32	4768.41
16.36	4208.48
16.4	4334.92
16.44	4407.16
16.48	4154.29
16.52	4352.98
16.56	4678.1
16.6	4497.47
16.64	4045.92
16.68	4371.04
16.72	4425.23
16.76	4804.53
16.8	3991.73
16.84	4136.23
16.88	4641.97
16.92	4515.54
16.96	4641.97
17	4316.85
17.04	4298.79
17.08	4660.03
17.12	4822.59
17.16	4985.15
17.2	5689.58
17.24	5219.96
17.28	4678.1
17.32	4244.6
17.36	4136.23
17.4	4136.23
17.44	4190.42
17.48	4389.1
17.52	4262.67
17.56	4912.9
17.6	3811.11
17.64	4894.84
17.68	4605.85
17.72	4190.42
17.76	4533.6
17.8	4082.05
17.84	4100.11
17.88	3973.67
17.92	3991.73
17.96	4136.23
18	3847.24
18.04	4226.54
18.08	4660.03
18.12	5147.71
18.16	5292.21
18.2	5238.02
18.24	5147.71
18.28	4678.1
18.32	4515.54
18.36	4660.03
18.4	4786.47
18.44	5310.27
18.48	4443.29
18.52	4371.04
18.56	4136.23
18.6	4226.54
18.64	3756.93
18.68	4280.73
18.72	4118.17
18.76	4822.59
18.8	4172.36
18.84	4334.92
18.88	4678.1
18.92	4949.03
18.96	4949.03
19	4912.9
19.04	4407.16
19.08	4623.91
19.12	5039.34
19.16	5111.59
19.2	5364.46
19.24	5021.28
19.28	5093.53
19.32	4280.73
19.36	4497.47
19.4	4714.22
19.44	4208.48
19.48	4569.72
19.52	3720.8
19.56	4533.6
19.6	4461.35
19.64	3937.55
19.68	3504.06
19.72	4136.23
19.76	4045.92
19.8	3829.18
19.84	4045.92
19.88	3847.24
19.92	3395.68
19.96	3413.75
20	3648.55
20.04	3883.36
20.08	3829.18
20.12	3702.74
20.16	3377.62
20.2	4208.48
20.24	3901.42
20.28	3558.24
20.32	3215.06
20.36	3431.81
20.4	3793.05
20.44	3865.3
20.48	3341.5
20.52	3666.62
20.56	3612.43
20.6	3305.37
20.64	3756.93
20.68	4226.54
20.72	3738.86
20.76	3847.24
20.8	3720.8
20.84	3811.11
20.88	4154.29
20.92	3937.55
20.96	3847.24
21	3431.81
21.04	3847.24
21.08	3540.18
21.12	3684.68
21.16	3919.49
21.2	3504.06
21.24	3738.86
21.28	4045.92
21.32	3991.73
21.36	3431.81
21.4	3829.18
21.44	3594.37
21.48	3504.06
21.52	3666.62
21.56	3612.43
21.6	3630.49
21.64	3648.55
21.68	3124.75
21.72	4100.11
21.76	3847.24
21.8	3720.8
21.84	3666.62
21.88	3377.62
21.92	3594.37
21.96	3485.99
22	3504.06
22.04	3287.31
22.08	3251.19
22.12	3756.93
22.16	3251.19
22.2	3359.56
22.24	3178.94
22.28	3449.87
22.32	3648.55
22.36	3702.74
22.4	3305.37
22.44	3865.3
22.48	3124.75
22.52	3341.5
22.56	3106.69
22.6	3413.75
22.64	3630.49
22.68	3485.99
22.72	3973.67
22.76	3197
22.8	3359.56
22.84	3233.12
22.88	3540.18
22.92	3720.8
22.96	3251.19
23	3467.93
23.04	3756.93
23.08	3413.75
23.12	3178.94
23.16	3341.5
23.2	3106.69
23.24	3793.05
23.28	3287.31
23.32	3377.62
23.36	3305.37
23.4	2835.76
23.44	3287.31
23.48	3287.31
23.52	3323.44
23.56	3359.56
23.6	3630.49
23.64	3215.06
23.68	3305.37
23.72	2727.38
23.76	3269.25
23.8	3558.24
23.84	2980.25
23.88	3124.75
23.92	3738.86
23.96	4027.86
24	3449.87
24.04	3576.31
24.08	3449.87
24.12	3233.12
24.16	3413.75
24.2	3233.12
24.24	3160.88
24.28	3106.69
24.32	3178.94
24.36	2745.45
24.4	3449.87
24.44	3106.69
24.48	3124.75
24.52	3449.87
24.56	3142.81
24.6	3106.69
24.64	3124.75
24.68	2492.58
24.72	2763.51
24.76	2763.51
24.8	2853.82
24.84	2944.13
24.88	3034.44
24.92	2619.01
24.96	2799.63
25	2763.51
25.04	3016.38
25.08	2745.45
25.12	2817.69
25.16	2673.2
25.2	2817.69
25.24	2673.2
25.28	2727.38
25.32	2510.64
25.36	2582.89
25.4	2745.45
25.44	2619.01
25.48	2944.13
25.52	3449.87
25.56	2546.76
25.6	2474.51
25.64	2745.45
25.68	2781.57
25.72	2944.13
25.76	2853.82
25.8	2600.95
25.84	3088.63
25.88	2438.39
25.92	3251.19
25.96	3431.81
26	3215.06
26.04	3323.44
26.08	3124.75
26.12	3576.31
26.16	3160.88
26.2	2944.13
26.24	2709.32
26.28	2637.07
26.32	2293.89
26.36	2077.15
26.4	2582.89
26.44	2420.33
26.48	2438.39
26.52	2564.82
26.56	2781.57
26.6	2221.64
26.64	2203.58
26.68	2420.33
26.72	2637.07
26.76	2366.14
26.8	2167.46
26.84	2348.08
26.88	2257.77
26.92	2167.46
26.96	2528.7
27	2221.64
27.04	2239.71
27.08	2691.26
27.12	2113.27
27.16	2456.45
27.2	2022.96
27.24	2131.33
27.28	2113.27
27.32	2077.15
27.36	2293.89
27.4	2095.21
27.44	2456.45
27.48	2185.52
27.52	2221.64
27.56	2149.4
27.6	2077.15
27.64	2221.64
27.68	1950.71
27.72	2564.82
27.76	1806.21
27.8	2564.82
27.84	2619.01
27.88	2059.08
27.92	2275.83
27.96	2113.27
28	1914.59
28.04	2366.14
28.08	2546.76
28.12	2402.27
28.16	2059.08
28.2	2366.14
28.24	2167.46
28.28	2077.15
28.32	2113.27
28.36	2059.08
28.4	2203.58
28.44	1986.84
28.48	2095.21
28.52	1733.97
28.56	2113.27
28.6	1914.59
28.64	2167.46
28.68	2348.08
28.72	1770.09
28.76	2131.33
28.8	2149.4
28.84	1896.53
28.88	1986.84
28.92	2239.71
28.96	1806.21
29	1860.4
29.04	2041.02
29.08	2022.96
29.12	1860.4
29.16	1914.59
29.2	2402.27
29.24	1950.71
29.28	1914.59
29.32	2077.15
29.36	2185.52
29.4	2257.77
29.44	2167.46
29.48	2113.27
29.52	1860.4
29.56	1914.59
29.6	1986.84
29.64	1932.65
29.68	2004.9
29.72	2059.08
29.76	1968.77
29.8	1914.59
29.84	1535.28
29.88	1986.84
29.92	1968.77
29.96	1806.21
30	2095.21
30.04	1824.28
30.08	1986.84
30.12	1752.03
30.16	2059.08
30.2	1968.77
30.24	1679.78
30.28	1842.34
30.32	1986.84
30.36	1968.77
30.4	1697.84
30.44	1986.84
30.48	1860.4
30.52	1553.34
30.56	1697.84
30.6	2041.02
30.64	1661.72
30.68	1715.9
30.72	1607.53
30.76	1824.28
30.8	1770.09
30.84	1878.46
30.88	1806.21
30.92	1390.79
30.96	2077.15
31	1553.34
31.04	1679.78
31.08	1390.79
31.12	1607.53
31.16	1607.53
31.2	1878.46
31.24	1589.47
31.28	1715.9
31.32	1733.97
31.36	1553.34
31.4	1300.47
31.44	1896.53
31.48	1463.03
31.52	1643.66
31.56	1788.15
31.6	1517.22
31.64	1571.41
31.68	1643.66
31.72	1788.15
31.76	1896.53
31.8	1733.97
31.84	1679.78
31.88	1372.72
31.92	1553.34
31.96	1932.65
32	1463.03
32.04	1914.59
32.08	1481.1
32.12	1354.66
32.16	1535.28
32.2	1354.66
32.24	1607.53
32.28	1246.29
32.32	1752.03
32.36	1463.03
32.4	1968.77
32.44	1426.91
32.48	1300.47
32.52	1499.16
32.56	1553.34
32.6	1553.34
32.64	1788.15
32.68	1824.28
32.72	1282.41
32.76	1535.28
32.8	1372.72
32.84	1426.91
32.88	1715.9
32.92	1770.09
32.96	1679.78
33	1390.79
33.04	1752.03
33.08	1083.73
33.12	1625.59
33.16	1589.47
33.2	1318.54
33.24	1336.6
33.28	1752.03
33.32	1463.03
33.36	1661.72
33.4	1264.35
33.44	1426.91
33.48	1300.47
33.52	2041.02
33.56	1336.6
33.6	1390.79
33.64	1246.29
33.68	1607.53
33.72	1354.66
33.76	1481.1
33.8	1444.97
33.84	1481.1
33.88	1300.47
33.92	1246.29
33.96	1463.03
34	1246.29
34.04	1571.41
34.08	1770.09
34.12	1390.79
34.16	1390.79
34.2	1481.1
34.24	1625.59
34.28	1643.66
34.32	1607.53
34.36	1517.22
34.4	1282.41
34.44	1228.23
34.48	1336.6
34.52	1192.1
34.56	1228.23
34.6	1625.59
34.64	1174.04
34.68	1192.1
34.72	1282.41
34.76	1571.41
34.8	1228.23
34.84	1499.16
34.88	1426.91
34.92	1174.04
34.96	1426.91
35	1444.97
35.04	1499.16
35.08	1228.23
35.12	1390.79
35.16	1318.54
35.2	1354.66
35.24	1408.85
35.28	1481.1
35.32	1065.67
35.36	1318.54
35.4	1517.22
35.44	1372.72
35.48	1499.16
35.52	1354.66
35.56	1336.6
35.6	1481.1
35.64	1499.16
35.68	1426.91
35.72	1499.16
35.76	1372.72
35.8	1444.97
35.84	1318.54
35.88	1390.79
35.92	1246.29
35.96	1390.79
36	903.107
36.04	1354.66
36.08	1210.16
36.12	1318.54
36.16	1192.1
36.2	1444.97
36.24	1408.85
36.28	1065.67
36.32	975.356
36.36	1119.85
36.4	1408.85
36.44	903.107
36.48	1264.35
36.52	1408.85
36.56	1192.1
36.6	1155.98
36.64	1137.92
36.68	1264.35
36.72	1246.29
36.76	1282.41
36.8	1228.23
36.84	1228.23
36.88	993.418
36.92	1444.97
36.96	1372.72
37	1264.35
37.04	1155.98
37.08	1246.29
37.12	1264.35
37.16	1192.1
37.2	1101.79
37.24	1444.97
37.28	1481.1
37.32	1065.67
37.36	1372.72
37.4	1264.35
37.44	1336.6
37.48	1210.16
37.52	1300.47
37.56	939.232
37.6	921.169
37.64	1119.85
37.68	1047.6
37.72	1155.98
37.76	1137.92
37.8	1174.04
37.84	1119.85
37.88	1119.85
37.92	1318.54
37.96	1083.73
38	1264.35
38.04	1210.16
38.08	1372.72
38.12	1336.6
38.16	1463.03
38.2	1300.47
38.24	1083.73
38.28	1029.54
38.32	1137.92
38.36	1011.48
38.4	1264.35
38.44	1047.6
38.48	1354.66
38.52	1029.54
38.56	1101.79
38.6	1047.6
38.64	993.418
38.68	1119.85
38.72	1137.92
38.76	1300.47
38.8	939.232
38.84	1192.1
38.88	975.356
38.92	1083.73
38.96	1264.35
39	1047.6
39.04	1101.79
39.08	1155.98
39.12	1372.72
39.16	1029.54
39.2	1228.23
39.24	1174.04
39.28	1210.16
39.32	1174.04
39.36	1047.6
39.4	1174.04
39.44	1444.97
39.48	1192.1
39.52	1155.98
39.56	1011.48
39.6	1174.04
39.64	1137.92
39.68	939.232
39.72	1119.85
39.76	1011.48
39.8	1155.98
39.84	1155.98
39.88	1228.23
39.92	885.045
39.96	1029.54
40	1047.6
40.04	848.921
40.08	1210.16
40.12	1228.23
40.16	1065.67
40.2	1119.85
40.24	1029.54
40.28	1426.91
40.32	1065.67
40.36	1155.98
40.4	993.418
40.44	1137.92
40.48	1101.79
40.52	993.418
40.56	1065.67
40.6	1155.98
40.64	1047.6
40.68	1174.04
40.72	1137.92
40.76	1246.29
40.8	1174.04
40.84	1119.85
40.88	1192.1
40.92	1101.79
40.96	1029.54
41	1246.29
41.04	1264.35
41.08	1101.79
41.12	1047.6
41.16	1101.79
41.2	1155.98
41.24	939.232
41.28	1137.92
41.32	975.356
41.36	1155.98
41.4	1065.67
41.44	1011.48
41.48	1101.79
41.52	1083.73
41.56	1047.6
41.6	1192.1
41.64	903.107
41.68	1101.79
41.72	1390.79
41.76	1101.79
41.8	1390.79
41.84	1101.79
41.88	1101.79
41.92	993.418
41.96	1282.41
42	1083.73
42.04	1137.92
42.08	1083.73
42.12	866.983
42.16	1155.98
42.2	1065.67
42.24	903.107
42.28	993.418
42.32	1228.23
42.36	1101.79
42.4	1047.6
42.44	1047.6
42.48	939.232
42.52	1155.98
42.56	975.356
42.6	1155.98
42.64	866.983
42.68	1210.16
42.72	921.169
42.76	1119.85
42.8	975.356
42.84	758.61
42.88	1282.41
42.92	1155.98
42.96	885.045
43	812.797
43.04	1119.85
43.08	1011.48
43.12	1029.54
43.16	1083.73
43.2	848.921
43.24	939.232
43.28	921.169
43.32	1101.79
43.36	1119.85
43.4	1119.85
43.44	830.859
43.48	1137.92
43.52	885.045
43.56	776.672
43.6	1029.54
43.64	1119.85
43.68	722.486
43.72	885.045
43.76	939.232
43.8	830.859
43.84	1210.16
43.88	939.232
43.92	1101.79
43.96	1029.54
44	866.983
44.04	993.418
44.08	1228.23
44.12	848.921
44.16	957.294
44.2	1029.54
44.24	957.294
44.28	1210.16
44.32	957.294
44.36	1029.54
44.4	794.734
44.44	1083.73
44.48	866.983
44.52	758.61
44.56	866.983
44.6	993.418
44.64	848.921
44.68	1065.67
44.72	1065.67
44.76	1137.92
44.8	975.356
44.84	1083.73
44.88	1083.73
44.92	1065.67
44.96	1011.48
45	903.107
45.04	1011.48
45.08	758.61
45.12	1119.85
45.16	903.107
45.2	957.294
45.24	632.175
45.28	993.418
45.32	957.294
45.36	1047.6
45.4	866.983
45.44	812.797
45.48	812.797
45.52	903.107
45.56	1119.85
45.6	830.859
45.64	740.548
45.68	885.045
45.72	866.983
45.76	1047.6
45.8	848.921
45.84	957.294
45.88	812.797
45.92	812.797
45.96	903.107
46	975.356
46.04	1192.1
46.08	975.356
46.12	921.169
46.16	686.362
46.2	885.045
46.24	885.045
46.28	776.672
46.32	1011.48
46.36	722.486
46.4	722.486
46.44	632.175
46.48	975.356
46.52	993.418
46.56	686.362
46.6	903.107
46.64	885.045
46.68	614.113
46.72	812.797
46.76	921.169
46.8	1011.48
46.84	885.045
46.88	993.418
46.92	1155.98
46.96	939.232
47	740.548
47.04	885.045
47.08	903.107
47.12	1083.73
47.16	903.107
47.2	740.548
47.24	885.045
47.28	812.797
47.32	1011.48
47.36	957.294
47.4	668.299
47.44	885.045
47.48	794.734
47.52	812.797
47.56	848.921
47.6	740.548
47.64	848.921
47.68	939.232
47.72	866.983
47.76	577.989
47.8	866.983
47.84	758.61
47.88	740.548
47.92	812.797
47.96	885.045
48	866.983
48.04	523.802
48.08	848.921
48.12	758.61
48.16	812.797
48.2	830.859
48.24	866.983
48.28	903.107
48.32	830.859
48.36	885.045
48.4	650.237
48.44	794.734
48.48	577.989
48.52	812.797
48.56	939.232
48.6	722.486
48.64	939.232
48.68	866.983
48.72	758.61
48.76	704.424
48.8	704.424
48.84	957.294
48.88	812.797
48.92	740.548
48.96	758.61
49	830.859
49.04	614.113
49.08	686.362
49.12	758.61
49.16	632.175
49.2	596.051
49.24	830.859
49.28	686.362
49.32	830.859
49.36	794.734
49.4	722.486
49.44	794.734
49.48	848.921
49.52	704.424
49.56	740.548
49.6	812.797
49.64	451.554
49.68	704.424
49.72	650.237
49.76	848.921
49.8	758.61
49.84	704.424
49.88	722.486
49.92	686.362
49.96	794.734
50	758.61
50.04	650.237
50.08	722.486
50.12	812.797
50.16	596.051
50.2	1011.48
50.24	541.864
50.28	704.424
50.32	469.616
50.36	848.921
50.4	776.672
50.44	776.672
50.48	632.175
50.52	596.051
50.56	903.107
50.6	559.927
50.64	740.548
50.68	885.045
50.72	866.983
50.76	686.362
50.8	577.989
50.84	614.113
50.88	740.548
50.92	866.983
50.96	614.113
51	812.797
51.04	650.237
51.08	596.051
51.12	632.175
51.16	776.672
51.2	668.299
51.24	758.61
51.28	776.672
51.32	704.424
51.36	704.424
51.4	830.859
51.44	577.989
51.48	596.051
51.52	740.548
51.56	451.554
51.6	523.802
51.64	686.362
51.68	668.299
51.72	686.362
51.76	903.107
51.8	758.61
51.84	704.424
51.88	614.113
51.92	541.864
51.96	722.486
52	650.237
52.04	559.927
52.08	848.921
52.12	559.927
52.16	650.237
52.2	632.175
52.24	614.113
52.28	325.119
52.32	523.802
52.36	614.113
52.4	830.859
52.44	614.113
52.48	523.802
52.52	704.424
52.56	577.989
52.6	776.672
52.64	668.299
52.68	776.672
52.72	758.61
52.76	523.802
52.8	776.672
52.84	758.61
52.88	596.051
52.92	596.051
52.96	668.299
53	704.424
53.04	632.175
53.08	848.921
53.12	722.486
53.16	776.672
53.2	469.616
53.24	668.299
53.28	577.989
53.32	577.989
53.36	505.74
53.4	668.299
53.44	704.424
53.48	397.367
53.52	559.927
53.56	776.672
53.6	794.734
53.64	848.921
53.68	740.548
53.72	632.175
53.76	559.927
53.8	505.74
53.84	812.797
53.88	577.989
53.92	686.362
53.96	541.864
54	722.486
54.04	596.051
54.08	975.356
54.12	704.424
54.16	812.797
54.2	577.989
54.24	848.921
54.28	686.362
54.32	541.864
54.36	487.678
54.4	614.113
54.44	632.175
54.48	577.989
54.52	722.486
54.56	668.299
54.6	559.927
54.64	523.802
54.68	577.989
54.72	541.864
54.76	451.554
54.8	740.548
54.84	451.554
54.88	668.299
54.92	650.237
54.96	487.678
55	722.486
55.04	559.927
55.08	668.299
55.12	686.362
55.16	632.175
55.2	668.299
55.24	523.802
55.28	650.237
55.32	704.424
55.36	704.424
55.4	614.113
55.44	596.051
55.48	559.927
55.52	559.927
55.56	523.802
55.6	650.237
55.64	614.113
55.68	577.989
55.72	541.864
55.76	704.424
55.8	577.989
55.84	704.424
55.88	577.989
55.92	577.989
55.96	541.864
56	541.864
56.04	614.113
56.08	668.299
56.12	577.989
56.16	614.113
56.2	433.492
56.24	523.802
56.28	632.175
56.32	704.424
56.36	559.927
56.4	596.051
56.44	523.802
56.48	722.486
56.52	632.175
56.56	433.492
56.6	541.864
56.64	541.864
56.68	704.424
56.72	451.554
56.76	632.175
56.8	523.802
56.84	668.299
56.88	577.989
56.92	577.989
56.96	505.74
57	559.927
57.04	596.051
57.08	559.927
57.12	812.797
57.16	596.051
57.2	541.864
57.24	487.678
57.28	361.243
57.32	505.74
57.36	722.486
57.4	704.424
57.44	577.989
57.48	523.802
57.52	451.554
57.56	632.175
57.6	433.492
57.64	650.237
57.68	596.051
57.72	469.616
57.76	397.367
57.8	451.554
57.84	469.616
57.88	415.429
57.92	541.864
57.96	541.864
58	758.61
58.04	451.554
58.08	433.492
58.12	704.424
58.16	397.367
58.2	523.802
58.24	650.237
58.28	469.616
58.32	523.802
58.36	469.616
58.4	577.989
58.44	614.113
58.48	668.299
58.52	379.305
58.56	523.802
58.6	415.429
58.64	577.989
58.68	632.175
58.72	614.113
58.76	505.74
58.8	541.864
58.84	559.927
58.88	668.299
58.92	577.989
58.96	541.864
59	415.429
59.04	614.113
59.08	469.616
59.12	632.175
59.16	505.74
59.2	433.492
59.24	487.678
59.28	650.237
59.32	614.113
59.36	650.237
59.4	415.429
59.44	596.051
59.48	541.864
59.52	469.616
59.56	559.927
59.6	541.864
59.64	650.237
59.68	379.305
59.72	614.113
59.76	361.243
59.8	469.616
59.84	577.989
59.88	433.492
59.92	505.74
59.96	523.802
60	469.616